Folder: Smart-Fabrics/instron/independence/size/bad_l15w3_40_30 (part 2)

File: bad_l15w3_40_30.txt
Thayer School of Engineering        Instron 4442 Mechanical Testing System
7/4/2018 10:21:41 PM

  Force (N)	Extension (mm)	Not Used	Not Used	Not Used	     Hour	    Minute	    Second
    0.3128 	    0.5180 	   22.0000 	   22.0000 	   43.3389
    0.3738 	    0.8685 	   22.0000 	   22.0000 	   44.0399
    0.3433 	    1.2050 	   22.0000 	   22.0000 	   44.7129
    0.3738 	    1.5685 	   22.0000 	   22.0000 	   45.4400
    0.4196 	    1.8100 	   22.0000 	   22.0000 	   45.9230
    0.6638 	    2.0340 	   22.0000 	   22.0000 	   46.3710
    0.4196 	    2.2510 	   22.0000 	   22.0000 	   46.8051
    0.3128 	    2.4695 	   22.0000 	   22.0000 	   47.2421
    0.3738 	    2.6925 	   22.0000 	   22.0000 	   47.6881
    0.2670 	    2.9070 	   22.0000 	   22.0000 	   48.1171
    0.3738 	    3.1275 	   22.0000 	   22.0000 	   48.5582
    0.3586 	    3.3455 	   22.0000 	   22.0000 	   48.9942
    0.3128 	    3.5680 	   22.0000 	   22.0000 	   49.4392
    0.1144 	    3.7910 	   22.0000 	   22.0000 	   49.8852
    0.4196 	    4.0110 	   22.0000 	   22.0000 	   50.3253
    0.5264 	    4.2270 	   22.0000 	   22.0000 	   50.7573
    0.3281 	    4.4465 	   22.0000 	   22.0000 	   51.1963
    0.4349 	    4.6775 	   22.0000 	   22.0000 	   51.6583
    0.1755 	    4.8950 	   22.0000 	   22.0000 	   52.0934
    0.4196 	    5.1125 	   22.0000 	   22.0000 	   52.5284
    0.3586 	    5.3385 	   22.0000 	   22.0000 	   52.9804
    0.3738 	    5.5645 	   22.0000 	   22.0000 	   53.4324
    0.2976 	    5.7885 	   22.0000 	   22.0000 	   53.8805
    0.4196 	    6.0130 	   22.0000 	   22.0000 	   54.3295
    0.4044 	    6.2360 	   22.0000 	   22.0000 	   54.7755
    0.3586 	    6.4635 	   22.0000 	   22.0000 	   55.2305
    0.4959 	    6.6945 	   22.0000 	   22.0000 	   55.6926
    0.3281 	    6.9230 	   22.0000 	   22.0000 	   56.1496
    0.5264 	    7.1505 	   22.0000 	   22.0000 	   56.6046
    0.3586 	    7.3795 	   22.0000 	   22.0000 	   57.0626
    0.3891 	    7.6065 	   22.0000 	   22.0000 	   57.5167
    0.4959 	    7.8375 	   22.0000 	   22.0000 	   57.9787
    0.4959 	    8.0680 	   22.0000 	   22.0000 	   58.4397
    0.6027 	    8.2960 	   22.0000 	   22.0000 	   58.8948
    0.5417 	    8.5215 	   22.0000 	   22.0000 	   59.3458
    0.4654 	    8.7580 	   22.0000 	   22.0000 	   59.8188
    0.4501 	    8.9935 	   22.0000 	   23.0000 	    0.2898
    0.5570 	    9.2245 	   22.0000 	   23.0000 	    0.7519
    0.3738 	    9.4395 	   22.0000 	   23.0000 	    1.1819
    0.4807 	    9.6780 	   22.0000 	   23.0000 	    1.6589
    0.4044 	    9.9185 	   22.0000 	   23.0000 	    2.1399
    0.5722 	   10.1380 	   22.0000 	   23.0000 	    2.5790
    0.4654 	   10.3620 	   22.0000 	   23.0000 	    3.0270
    0.5875 	   10.6005 	   22.0000 	   23.0000 	    3.5040
    0.5570 	   10.8440 	   22.0000 	   23.0000 	    3.9910
    0.4349 	   11.0680 	   22.0000 	   23.0000 	    4.4381
    0.5722 	   11.2860 	   22.0000 	   23.0000 	    4.8751
    0.5112 	   11.5005 	   22.0000 	   23.0000 	    5.3041
    0.1144 	   11.7485 	   22.0000 	   23.0000 	    5.8001
    0.5264 	   11.9930 	   22.0000 	   23.0000 	    6.2892
    0.6638 	   12.2420 	   22.0000 	   23.0000 	    6.7872
    0.5264 	   12.4855 	   22.0000 	   23.0000 	    7.2742
    0.5264 	   12.7300 	   22.0000 	   23.0000 	    7.7633
    0.2060 	   12.9745 	   22.0000 	   23.0000 	    8.2523
    0.5722 	   13.2125 	   22.0000 	   23.0000 	    8.7283
    0.5875 	   13.4620 	   22.0000 	   23.0000 	    9.2273
    0.5264 	   13.7105 	   22.0000 	   23.0000 	    9.7244
    0.6027 	   13.9515 	   22.0000 	   23.0000 	   10.2064
    0.6485 	   14.1915 	   22.0000 	   23.0000 	   10.6864
    0.6485 	   14.4355 	   22.0000 	   23.0000 	   11.1745
    0.5722 	   14.6775 	   22.0000 	   23.0000 	   11.6585
    0.8011 	   14.9275 	   22.0000 	   23.0000 	   12.1585
    0.6180 	   15.1795 	   22.0000 	   23.0000 	   12.6625
    0.5875 	   15.4110 	   22.0000 	   23.0000 	   13.1256
    0.6027 	   15.6565 	   22.0000 	   23.0000 	   13.6166
    0.5722 	   15.8895 	   22.0000 	   23.0000 	   14.0826
    0.6943 	   16.1205 	   22.0000 	   23.0000 	   14.5446
    0.6790 	   16.3460 	   22.0000 	   23.0000 	   14.9957
    0.5112 	   16.5960 	   22.0000 	   23.0000 	   15.4957
    0.6027 	   16.8365 	   22.0000 	   23.0000 	   15.9767
    0.4349 	   17.0915 	   22.0000 	   23.0000 	   16.4858
    0.6332 	   17.3440 	   22.0000 	   23.0000 	   16.9908
    0.6180 	   17.5820 	   22.0000 	   23.0000 	   17.4668
    0.6180 	   17.8285 	   22.0000 	   23.0000 	   17.9598
    0.7401 	   18.0790 	   22.0000 	   23.0000 	   18.4609
    0.6943 	   18.3345 	   22.0000 	   23.0000 	   18.9719
    0.6943 	   18.5940 	   22.0000 	   23.0000 	   19.4909
    0.7706 	   18.8535 	   22.0000 	   23.0000 	   20.0100
    0.9842 	   19.1140 	   22.0000 	   23.0000 	   20.5310
    0.7248 	   19.3615 	   22.0000 	   23.0000 	   21.0260
    0.8316 	   19.6100 	   22.0000 	   23.0000 	   21.5230
    0.6943 	   19.8595 	   22.0000 	   23.0000 	   22.0221
    0.8774 	   20.1090 	   22.0000 	   23.0000 	   22.5211
    0.8927 	   20.3465 	   22.0000 	   23.0000 	   22.9961
    0.9842 	   20.5845 	   22.0000 	   23.0000 	   23.4722
    0.6638 	   20.8255 	   22.0000 	   23.0000 	   23.9542
    0.7858 	   21.0780 	   22.0000 	   23.0000 	   24.4592
    0.8469 	   21.3360 	   22.0000 	   23.0000 	   24.9752
    0.6485 	   21.6005 	   22.0000 	   23.0000 	   25.5043
    0.9232 	   21.8670 	   22.0000 	   23.0000 	   26.0373
    0.7248 	   22.1230 	   22.0000 	   23.0000 	   26.5493
    0.8469 	   22.3610 	   22.0000 	   23.0000 	   27.0254
    0.8774 	   22.6135 	   22.0000 	   23.0000 	   27.5304
    0.7248 	   22.8535 	   22.0000 	   23.0000 	   28.0104
    1.0300 	   23.1110 	   22.0000 	   23.0000 	   28.5254
    0.8774 	   23.3610 	   22.0000 	   23.0000 	   29.0255
    0.9384 	   23.6035 	   22.0000 	   23.0000 	   29.5105
    0.9079 	   23.8575 	   22.0000 	   23.0000 	   30.0185
    0.9079 	   24.1105 	   22.0000 	   23.0000 	   30.5246
    0.8927 	   24.3505 	   22.0000 	   23.0000 	   31.0046
    0.9232 	   24.6085 	   22.0000 	   23.0000 	   31.5206
    1.0452 	   24.8520 	   22.0000 	   23.0000 	   32.0076
    0.9689 	   25.1175 	   22.0000 	   23.0000 	   32.5387
    1.1521 	   25.3880 	   22.0000 	   23.0000 	   33.0797
    1.0758 	   25.6605 	   22.0000 	   23.0000 	   33.6237
    1.0300 	   25.9305 	   22.0000 	   23.0000 	   34.1638
    0.9384 	   26.2010 	   22.0000 	   23.0000 	   34.7048
    1.0605 	   26.4740 	   22.0000 	   23.0000 	   35.2508
    0.9537 	   26.7550 	   22.0000 	   23.0000 	   35.8129
    1.0147 	   27.0200 	   22.0000 	   23.0000 	   36.3429
    1.0452 	   27.2915 	   22.0000 	   23.0000 	   36.8859
    1.0452 	   27.5625 	   22.0000 	   23.0000 	   37.4280
    1.1368 	   27.8325 	   22.0000 	   23.0000 	   37.9680
    1.0605 	   28.0895 	   22.0000 	   23.0000 	   38.4820
    1.1978 	   28.3590 	   22.0000 	   23.0000 	   39.0210
    1.1521 	   28.6295 	   22.0000 	   23.0000 	   39.5621
    1.1368 	   28.8995 	   22.0000 	   23.0000 	   40.1021
    1.2589 	   29.1740 	   22.0000 	   23.0000 	   40.6511
    1.0147 	   29.4845 	   22.0000 	   23.0000 	   41.2722
    1.2284 	   29.7560 	   22.0000 	   23.0000 	   41.8152
    1.3962 	   30.0295 	   22.0000 	   23.0000 	   42.3622
    1.2131 	   30.3105 	   22.0000 	   23.0000 	   42.9243
    1.2741 	   30.5865 	   22.0000 	   23.0000 	   43.4763
    1.2589 	   30.8615 	   22.0000 	   23.0000 	   44.0263
    1.1368 	   31.1370 	   22.0000 	   23.0000 	   44.5774
    1.2894 	   31.4150 	   22.0000 	   23.0000 	   45.1334
    1.3962 	   31.6995 	   22.0000 	   23.0000 	   45.7024
    1.3199 	   31.9735 	   22.0000 	   23.0000 	   46.2505
    1.4725 	   32.2505 	   22.0000 	   23.0000 	   46.8045
    1.5030 	   32.5155 	   22.0000 	   23.0000 	   47.3345
    1.4725 	   32.7805 	   22.0000 	   23.0000 	   47.8646
    1.5640 	   33.0615 	   22.0000 	   23.0000 	   48.4266
    1.4725 	   33.3180 	   22.0000 	   23.0000 	   48.9396
    1.5488 	   33.5795 	   22.0000 	   23.0000 	   49.4626
    1.4878 	   33.8490 	   22.0000 	   23.0000 	   50.0017
    1.3657 	   34.1220 	   22.0000 	   23.0000 	   50.5477
    1.6709 	   34.4035 	   22.0000 	   23.0000 	   51.1097
    1.5793 	   34.6625 	   22.0000 	   23.0000 	   51.6278
    1.5488 	   34.9360 	   22.0000 	   23.0000 	   52.1748
    1.6556 	   35.2180 	   22.0000 	   23.0000 	   52.7388
    1.5793 	   35.5045 	   22.0000 	   23.0000 	   53.3119
    1.7319 	   35.7890 	   22.0000 	   23.0000 	   53.8809
    1.8997 	   36.0720 	   22.0000 	   23.0000 	   54.4469
    1.7166 	   36.3315 	   22.0000 	   23.0000 	   54.9660
    1.6861 	   36.6150 	   22.0000 	   23.0000 	   55.5330
    1.6709 	   36.8995 	   22.0000 	   23.0000 	   56.1020
    1.6709 	   37.1795 	   22.0000 	   23.0000 	   56.6621
    1.7472 	   37.4595 	   22.0000 	   23.0000 	   57.2221
    1.7777 	   37.7460 	   22.0000 	   23.0000 	   57.7951
    2.0981 	   38.0315 	   22.0000 	   23.0000 	   58.3662
    1.5793 	   38.3185 	   22.0000 	   23.0000 	   58.9402
    1.9608 	   38.5760 	   22.0000 	   23.0000 	   59.4552
    1.9303 	   38.8455 	   22.0000 	   23.0000 	   59.9942
    2.0371 	   39.1155 	   22.0000 	   24.0000 	    0.5343
    2.0218 	   39.4005 	   22.0000 	   24.0000 	    1.1043
    1.7319 	   39.6855 	   22.0000 	   24.0000 	    1.6743
    2.1439 	   39.9625 	   22.0000 	   24.0000 	    2.2284
    2.0371 	   40.2270 	   22.0000 	   24.0000 	    2.7574
    2.0066 	   40.4910 	   22.0000 	   24.0000 	    3.2854
    2.1592 	   40.6280 	   22.0000 	   24.0000 	    3.5595