Folder: Smart-Fabrics/instron/independence/size/length (part 2)

File: b_l20w3_40_30.txt
Thayer School of Engineering        Instron 4442 Mechanical Testing System
7/5/2018 11:08:41 PM

  Force (N)	Extension (mm)	Not Used	Not Used	Not Used	     Hour	    Minute	    Second
    0.6638 	    0.5130 	   23.0000 	    8.0000 	   52.8025
    0.6790 	    0.8555 	   23.0000 	    8.0000 	   53.4876
    0.6485 	    1.2040 	   23.0000 	    8.0000 	   54.1846
    0.6638 	    1.5250 	   23.0000 	    8.0000 	   54.8266
    0.6638 	    1.7940 	   23.0000 	    8.0000 	   55.3647
    0.8316 	    2.0075 	   23.0000 	    8.0000 	   55.7917
    0.8469 	    2.2145 	   23.0000 	    8.0000 	   56.2057
    0.6027 	    2.4245 	   23.0000 	    8.0000 	   56.6257
    0.6180 	    2.6430 	   23.0000 	    8.0000 	   57.0628
    0.5722 	    2.8470 	   23.0000 	    8.0000 	   57.4708
    0.7858 	    3.0490 	   23.0000 	    8.0000 	   57.8748
    0.7706 	    3.2530 	   23.0000 	    8.0000 	   58.2828
    0.6332 	    3.4560 	   23.0000 	    8.0000 	   58.6889
    0.6638 	    3.6580 	   23.0000 	    8.0000 	   59.0929
    0.6638 	    3.8680 	   23.0000 	    8.0000 	   59.5129
    0.6180 	    4.0815 	   23.0000 	    8.0000 	   59.9399
    0.8011 	    4.2840 	   23.0000 	    9.0000 	    0.3449
    0.7553 	    4.4890 	   23.0000 	    9.0000 	    0.7550
    0.8621 	    4.6950 	   23.0000 	    9.0000 	    1.1670
    0.8469 	    4.9015 	   23.0000 	    9.0000 	    1.5800
    0.5570 	    5.1080 	   23.0000 	    9.0000 	    1.9930
    0.6027 	    5.3195 	   23.0000 	    9.0000 	    2.4161
    0.6943 	    5.5310 	   23.0000 	    9.0000 	    2.8381
    0.6790 	    5.7445 	   23.0000 	    9.0000 	    3.2651
    0.6790 	    5.9585 	   23.0000 	    9.0000 	    3.6931
    0.7706 	    6.1705 	   23.0000 	    9.0000 	    4.1172
    0.8927 	    6.3765 	   23.0000 	    9.0000 	    4.5292
    0.7401 	    6.5895 	   23.0000 	    9.0000 	    4.9552
    0.7858 	    6.8030 	   23.0000 	    9.0000 	    5.3822
    0.6638 	    7.0135 	   23.0000 	    9.0000 	    5.8033
    0.7248 	    7.2310 	   23.0000 	    9.0000 	    6.2383
    0.7401 	    7.4470 	   23.0000 	    9.0000 	    6.6703
    0.7095 	    7.6615 	   23.0000 	    9.0000 	    7.0993
    0.6943 	    7.8690 	   23.0000 	    9.0000 	    7.5144
    0.7248 	    8.0845 	   23.0000 	    9.0000 	    7.9454
    0.6332 	    8.2995 	   23.0000 	    9.0000 	    8.3754
    0.8011 	    8.5150 	   23.0000 	    9.0000 	    8.8064
    0.8164 	    8.7335 	   23.0000 	    9.0000 	    9.2435
    0.8774 	    8.9410 	   23.0000 	    9.0000 	    9.6585
    0.7095 	    9.1605 	   23.0000 	    9.0000 	   10.0975
    0.7248 	    9.3810 	   23.0000 	    9.0000 	   10.5385
    0.6943 	    9.6000 	   23.0000 	    9.0000 	   10.9766
    0.7706 	    9.8060 	   23.0000 	    9.0000 	   11.3886
    0.7858 	   10.0055 	   23.0000 	    9.0000 	   11.7876
    0.8316 	   10.2260 	   23.0000 	    9.0000 	   12.2286
    0.8621 	   10.4380 	   23.0000 	    9.0000 	   12.6527
    0.7858 	   10.6625 	   23.0000 	    9.0000 	   13.1017
    0.8316 	   10.8890 	   23.0000 	    9.0000 	   13.5547
    0.7858 	   11.1140 	   23.0000 	    9.0000 	   14.0047
    0.7095 	   11.3400 	   23.0000 	    9.0000 	   14.4568
    0.7858 	   11.5665 	   23.0000 	    9.0000 	   14.9098
    0.8164 	   11.7965 	   23.0000 	    9.0000 	   15.3698
    0.8621 	   12.0230 	   23.0000 	    9.0000 	   15.8228
    0.8164 	   12.2530 	   23.0000 	    9.0000 	   16.2829
    0.7553 	   12.4805 	   23.0000 	    9.0000 	   16.7379
    0.6027 	   12.7125 	   23.0000 	    9.0000 	   17.2019
    0.8316 	   12.9410 	   23.0000 	    9.0000 	   17.6589
    0.7553 	   13.1815 	   23.0000 	    9.0000 	   18.1400
    0.7706 	   13.4140 	   23.0000 	    9.0000 	   18.6050
    0.8316 	   13.6465 	   23.0000 	    9.0000 	   19.0700
    0.7553 	   13.8830 	   23.0000 	    9.0000 	   19.5430
    0.7858 	   14.1190 	   23.0000 	    9.0000 	   20.0141
    0.7553 	   14.3585 	   23.0000 	    9.0000 	   20.4931
    0.9232 	   14.5920 	   23.0000 	    9.0000 	   20.9601
    0.8164 	   14.8310 	   23.0000 	    9.0000 	   21.4372
    0.9842 	   15.0725 	   23.0000 	    9.0000 	   21.9212
    0.7858 	   15.3085 	   23.0000 	    9.0000 	   22.3932
    0.8316 	   15.5455 	   23.0000 	    9.0000 	   22.8672
    0.7401 	   15.7855 	   23.0000 	    9.0000 	   23.3473
    0.6790 	   16.0205 	   23.0000 	    9.0000 	   23.8173
    0.7553 	   16.2555 	   23.0000 	    9.0000 	   24.2873
    0.9537 	   16.4930 	   23.0000 	    9.0000 	   24.7623
    0.8164 	   16.7270 	   23.0000 	    9.0000 	   25.2304
    0.9232 	   16.9675 	   23.0000 	    9.0000 	   25.7114
    0.7858 	   17.1935 	   23.0000 	    9.0000 	   26.1634
    0.9537 	   17.4125 	   23.0000 	    9.0000 	   26.6015
    0.9537 	   17.6355 	   23.0000 	    9.0000 	   27.0475
    0.7401 	   17.8770 	   23.0000 	    9.0000 	   27.5305
    0.8164 	   18.1275 	   23.0000 	    9.0000 	   28.0315
    0.8011 	   18.3675 	   23.0000 	    9.0000 	   28.5116
    0.5264 	   18.6130 	   23.0000 	    9.0000 	   29.0026
    0.9842 	   18.8600 	   23.0000 	    9.0000 	   29.4966
    0.8316 	   19.1105 	   23.0000 	    9.0000 	   29.9976
    0.9079 	   19.3555 	   23.0000 	    9.0000 	   30.4877
    0.9689 	   19.6020 	   23.0000 	    9.0000 	   30.9807
    0.9232 	   19.8415 	   23.0000 	    9.0000 	   31.4597
    0.8774 	   20.0950 	   23.0000 	    9.0000 	   31.9668
    0.9384 	   20.3385 	   23.0000 	    9.0000 	   32.4538
    0.7553 	   20.5890 	   23.0000 	    9.0000 	   32.9548
    1.0300 	   20.8340 	   23.0000 	    9.0000 	   33.4448
    0.9232 	   21.0865 	   23.0000 	    9.0000 	   33.9499
    0.8469 	   21.3340 	   23.0000 	    9.0000 	   34.4449
    0.8469 	   21.5855 	   23.0000 	    9.0000 	   34.9479
    1.0147 	   21.8225 	   23.0000 	    9.0000 	   35.4220
    1.0758 	   22.0600 	   23.0000 	    9.0000 	   35.8970
    0.8927 	   22.3060 	   23.0000 	    9.0000 	   36.3890
    0.8164 	   22.5530 	   23.0000 	    9.0000 	   36.8830
    0.9232 	   22.7805 	   23.0000 	    9.0000 	   37.3381
    0.8621 	   23.0285 	   23.0000 	    9.0000 	   37.8331
    0.9384 	   23.2595 	   23.0000 	    9.0000 	   38.2951
    0.8927 	   23.5050 	   23.0000 	    9.0000 	   38.7861
    0.6485 	   23.7445 	   23.0000 	    9.0000 	   39.2652
    0.8469 	   23.9765 	   23.0000 	    9.0000 	   39.7292
    1.1368 	   24.2195 	   23.0000 	    9.0000 	   40.2152
    0.9537 	   24.4625 	   23.0000 	    9.0000 	   40.7013
    0.9689 	   24.7075 	   23.0000 	    9.0000 	   41.1913
    0.9079 	   24.9500 	   23.0000 	    9.0000 	   41.6763
    0.9842 	   25.1945 	   23.0000 	    9.0000 	   42.1653
    1.0147 	   25.4325 	   23.0000 	    9.0000 	   42.6414
    1.0605 	   25.6890 	   23.0000 	    9.0000 	   43.1544
    1.0300 	   25.9450 	   23.0000 	    9.0000 	   43.6664
    1.0147 	   26.1910 	   23.0000 	    9.0000 	   44.1585
    0.9079 	   26.4335 	   23.0000 	    9.0000 	   44.6435
    1.0758 	   26.6750 	   23.0000 	    9.0000 	   45.1265
    1.1063 	   26.9540 	   23.0000 	    9.0000 	   45.6845
    1.1063 	   27.2065 	   23.0000 	    9.0000 	   46.1896
    1.2284 	   27.4470 	   23.0000 	    9.0000 	   46.6706
    1.2131 	   27.6960 	   23.0000 	    9.0000 	   47.1686
    1.0452 	   27.9550 	   23.0000 	    9.0000 	   47.6867
    1.1521 	   28.2020 	   23.0000 	    9.0000 	   48.1807
    1.2284 	   28.4630 	   23.0000 	    9.0000 	   48.7027
    1.0147 	   28.7175 	   23.0000 	    9.0000 	   49.2117
    1.0147 	   28.9780 	   23.0000 	    9.0000 	   49.7328
    0.9384 	   29.2225 	   23.0000 	    9.0000 	   50.2218
    1.0910 	   29.4790 	   23.0000 	    9.0000 	   50.7348
    1.1673 	   29.7395 	   23.0000 	    9.0000 	   51.2559
    0.8011 	   30.0020 	   23.0000 	    9.0000 	   51.7809
    1.2131 	   30.2580 	   23.0000 	    9.0000 	   52.2929
    1.1063 	   30.5105 	   23.0000 	    9.0000 	   52.7980
    1.2589 	   30.7760 	   23.0000 	    9.0000 	   53.3290
    0.8621 	   31.0175 	   23.0000 	    9.0000 	   53.8120
    1.1521 	   31.2835 	   23.0000 	    9.0000 	   54.3440
    1.2894 	   31.5510 	   23.0000 	    9.0000 	   54.8791
    1.2589 	   31.8155 	   23.0000 	    9.0000 	   55.4071
    1.1063 	   32.0865 	   23.0000 	    9.0000 	   55.9491
    1.3199 	   32.3515 	   23.0000 	    9.0000 	   56.4792
    1.1673 	   32.6040 	   23.0000 	    9.0000 	   56.9842
    1.2284 	   32.8735 	   23.0000 	    9.0000 	   57.5232
    1.1978 	   33.1460 	   23.0000 	    9.0000 	   58.0683
    1.1978 	   33.4200 	   23.0000 	    9.0000 	   58.6163
    1.2436 	   33.6900 	   23.0000 	    9.0000 	   59.1563
    1.2894 	   33.9630 	   23.0000 	    9.0000 	   59.7023
    1.3504 	   34.2330 	   23.0000 	   10.0000 	    0.2424
    1.3046 	   34.5065 	   23.0000 	   10.0000 	    0.7894
    1.1978 	   34.7755 	   23.0000 	   10.0000 	    1.3274
    1.2436 	   35.0480 	   23.0000 	   10.0000 	    1.8725
    1.3352 	   35.3155 	   23.0000 	   10.0000 	    2.4075
    1.3504 	   35.5680 	   23.0000 	   10.0000 	    2.9125
    1.2894 	   35.8180 	   23.0000 	   10.0000 	    3.4126
    1.2131 	   36.0625 	   23.0000 	   10.0000 	    3.9016
    1.0452 	   36.3325 	   23.0000 	   10.0000 	    4.4416
    1.1673 	   36.6080 	   23.0000 	   10.0000 	    4.9926
    1.3352 	   36.8800 	   23.0000 	   10.0000 	    5.5367
    1.3352 	   37.1500 	   23.0000 	   10.0000 	    6.0767
    1.3046 	   37.4195 	   23.0000 	   10.0000 	    6.6157
    1.3504 	   37.6720 	   23.0000 	   10.0000 	    7.1208
    1.5640 	   37.9375 	   23.0000 	   10.0000 	    7.6518
    1.5030 	   38.2025 	   23.0000 	   10.0000 	    8.1818
    1.3962 	   38.4735 	   23.0000 	   10.0000 	    8.7239
    1.4725 	   38.7490 	   23.0000 	   10.0000 	    9.2749
    1.4878 	   39.0065 	   23.0000 	   10.0000 	    9.7899
    1.3352 	   39.2805 	   23.0000 	   10.0000 	   10.3380
    1.5335 	   39.5550 	   23.0000 	   10.0000 	   10.8870
    1.5030 	   39.8270 	   23.0000 	   10.0000 	   11.4310
    1.4725 	   40.0180 	   23.0000 	   10.0000 	   11.8130