Folder: Smart-Fabrics/instron (part 7)

File: fabric_1W15L_drag30_spd15.txt
Thayer School of Engineering        Instron 4442 Mechanical Testing System
6/28/2018 4:18:35 AM

  Force (N)	Extension (mm)	Not Used	Not Used	Not Used	     Hour	    Minute	    Second
    0.2976 	    0.2565 	    4.0000 	   18.0000 	   53.3702
    0.1907 	    0.7688 	    4.0000 	   18.0000 	   55.4194
    0.1907 	    1.0895 	    4.0000 	   18.0000 	   56.7024
    0.2060 	    1.3993 	    4.0000 	   18.0000 	   57.9405
    0.3433 	    1.7018 	    4.0000 	   18.0000 	   59.1506
    0.1602 	    1.9995 	    4.0000 	   19.0000 	    0.3416
    0.2060 	    2.2788 	    4.0000 	   19.0000 	    1.4587
    0.3738 	    2.5690 	    4.0000 	   19.0000 	    2.6198
   -0.0076 	    2.8588 	    4.0000 	   19.0000 	    3.7788
    0.1450 	    3.1685 	    4.0000 	   19.0000 	    5.0179
    0.3281 	    3.4720 	    4.0000 	   19.0000 	    6.2320
    0.2823 	    3.7703 	    4.0000 	   19.0000 	    7.4251
    0.1450 	    4.0725 	    4.0000 	   19.0000 	    8.6341
    0.1602 	    4.3865 	    4.0000 	   19.0000 	    9.8902
    0.2060 	    4.7023 	    4.0000 	   19.0000 	   11.1533
    0.3433 	    5.0170 	    4.0000 	   19.0000 	   12.4123
    0.1755 	    5.3345 	    4.0000 	   19.0000 	   13.6824
    0.2365 	    5.6598 	    4.0000 	   19.0000 	   14.9825
    0.1602 	    5.9633 	    4.0000 	   19.0000 	   16.1966
    0.0687 	    6.2873 	    4.0000 	   19.0000 	   17.4926
    0.3128 	    6.6030 	    4.0000 	   19.0000 	   18.7557
    0.1755 	    6.9355 	    4.0000 	   19.0000 	   20.0858
    0.4501 	    7.2695 	    4.0000 	   19.0000 	   21.4219
    0.1602 	    7.6013 	    4.0000 	   19.0000 	   22.7489
    0.2365 	    7.9453 	    4.0000 	   19.0000 	   24.1250
    0.3128 	    8.2880 	    4.0000 	   19.0000 	   25.4961
    0.1602 	    8.6270 	    4.0000 	   19.0000 	   26.8522
    0.2518 	    8.9685 	    4.0000 	   19.0000 	   28.2182
    0.1450 	    9.3050 	    4.0000 	   19.0000 	   29.5643
    0.2518 	    9.6365 	    4.0000 	   19.0000 	   30.8904
    0.3281 	    9.9963 	    4.0000 	   19.0000 	   32.3285
    0.3738 	   10.3475 	    4.0000 	   19.0000 	   33.7336
    0.2213 	   10.7150 	    4.0000 	   19.0000 	   35.2036
    0.2518 	   11.0863 	    4.0000 	   19.0000 	   36.6887
   -0.0229 	   11.4463 	    4.0000 	   19.0000 	   38.1288
    0.2518 	   11.8128 	    4.0000 	   19.0000 	   39.5949
    0.2823 	   12.1868 	    4.0000 	   19.0000 	   41.0910
    0.3128 	   12.5655 	    4.0000 	   19.0000 	   42.6061
    0.3891 	   12.9435 	    4.0000 	   19.0000 	   44.1181
    0.3433 	   13.3218 	    4.0000 	   19.0000 	   45.6312
    0.2670 	   13.6965 	    4.0000 	   19.0000 	   47.1303
    0.2213 	   14.0753 	    4.0000 	   19.0000 	   48.6454
    0.2670 	   14.4600 	    4.0000 	   19.0000 	   50.1835
    0.2976 	   14.8520 	    4.0000 	   19.0000 	   51.7516
    0.2976 	   15.2415 	    4.0000 	   19.0000 	   53.3097
    0.3586 	   15.6170 	    4.0000 	   19.0000 	   54.8118
    0.4196 	   16.0183 	    4.0000 	   19.0000 	   56.4169
    0.2823 	   16.4180 	    4.0000 	   19.0000 	   58.0159
    0.4959 	   16.8230 	    4.0000 	   19.0000 	   59.6360
    0.2518 	   17.2300 	    4.0000 	   20.0000 	    1.2641
    0.2976 	   17.6308 	    4.0000 	   20.0000 	    2.8672
    0.0992 	   18.0288 	    4.0000 	   20.0000 	    4.4593
    0.4196 	   18.4338 	    4.0000 	   20.0000 	    6.0794
    0.2213 	   18.8403 	    4.0000 	   20.0000 	    7.7045
    0.3586 	   19.2435 	    4.0000 	   20.0000 	    9.3176
    0.0381 	   19.6620 	    4.0000 	   20.0000 	   10.9917
    0.4349 	   20.0940 	    4.0000 	   20.0000 	   12.7198
    0.3281 	   20.5135 	    4.0000 	   20.0000 	   14.3979
    0.3281 	   20.9270 	    4.0000 	   20.0000 	   16.0520
    0.5264 	   21.3428 	    4.0000 	   20.0000 	   17.7151
    0.3586 	   21.7690 	    4.0000 	   20.0000 	   19.4202
    0.2213 	   22.1898 	    4.0000 	   20.0000 	   21.1033
    0.3891 	   22.6175 	    4.0000 	   20.0000 	   22.8144
    0.4654 	   23.0285 	    4.0000 	   20.0000 	   24.4585
    0.4349 	   23.4385 	    4.0000 	   20.0000 	   26.0976
    0.3738 	   23.8613 	    4.0000 	   20.0000 	   27.7886
    0.4196 	   24.2780 	    4.0000 	   20.0000 	   29.4557
    0.3891 	   24.7158 	    4.0000 	   20.0000 	   31.2068
    0.3891 	   25.1548 	    4.0000 	   20.0000 	   32.9629
    0.3891 	   25.5955 	    4.0000 	   20.0000 	   34.7260
    0.4807 	   26.0375 	    4.0000 	   20.0000 	   36.4941
    0.3586 	   26.4780 	    4.0000 	   20.0000 	   38.2562
    0.3738 	   26.9155 	    4.0000 	   20.0000 	   40.0063
    0.4501 	   27.3508 	    4.0000 	   20.0000 	   41.7474
    0.6180 	   27.7825 	    4.0000 	   20.0000 	   43.4735
    0.4501 	   28.2285 	    4.0000 	   20.0000 	   45.2576
    0.4196 	   28.6915 	    4.0000 	   20.0000 	   47.1098
    0.4959 	   29.1423 	    4.0000 	   20.0000 	   48.9129
    0.2518 	   29.5930 	    4.0000 	   20.0000 	   50.7160
    0.4196 	   30.0520 	    4.0000 	   20.0000 	   52.5511
    0.4501 	   30.5068 	    4.0000 	   20.0000 	   54.3712
    0.5112 	   30.9638 	    4.0000 	   20.0000 	   56.1993
    0.5722 	   31.4305 	    4.0000 	   20.0000 	   58.0664
    0.4959 	   31.9010 	    4.0000 	   20.0000 	   59.9475
    0.3891 	   32.3723 	    4.0000 	   21.0000 	    1.8326
    0.4349 	   32.8413 	    4.0000 	   21.0000 	    3.7087
    0.4959 	   33.3050 	    4.0000 	   21.0000 	    5.5638
    0.5722 	   33.7788 	    4.0000 	   21.0000 	    7.4589
    0.4044 	   34.2568 	    4.0000 	   21.0000 	    9.3710
    0.3891 	   34.7415 	    4.0000 	   21.0000 	   11.3101
    0.5112 	   35.2195 	    4.0000 	   21.0000 	   13.2222
    0.4501 	   35.7030 	    4.0000 	   21.0000 	   15.1564
    0.5264 	   36.1818 	    4.0000 	   21.0000 	   17.0715
    0.4654 	   36.6755 	    4.0000 	   21.0000 	   19.0456
    0.5875 	   37.1618 	    4.0000 	   21.0000 	   20.9907
    0.4501 	   37.6620 	    4.0000 	   21.0000 	   22.9918
    0.3281 	   38.1590 	    4.0000 	   21.0000 	   24.9799
    0.2823 	   38.6438 	    4.0000 	   21.0000 	   26.9190
    0.4349 	   39.1333 	    4.0000 	   21.0000 	   28.8771
    0.4349 	   39.6233 	    4.0000 	   21.0000 	   30.8373
    0.5264 	   40.1128 	    4.0000 	   21.0000 	   32.7954
    0.2823 	   40.6100 	    4.0000 	   21.0000 	   34.7835
    0.3891 	   41.1105 	    4.0000 	   21.0000 	   36.7856
    0.4196 	   41.6303 	    4.0000 	   21.0000 	   38.8647
    0.4807 	   42.1455 	    4.0000 	   21.0000 	   40.9258
    0.3281 	   42.6505 	    4.0000 	   21.0000 	   42.9459
    0.4349 	   43.1728 	    4.0000 	   21.0000 	   45.0351
    0.6180 	   43.6963 	    4.0000 	   21.0000 	   47.1292
    0.4349 	   44.2238 	    4.0000 	   21.0000 	   49.2393
    0.5264 	   44.7400 	    4.0000 	   21.0000 	   51.3044
    0.3433 	   45.2558 	    4.0000 	   21.0000 	   53.3665
    0.4196 	   45.7868 	    4.0000 	   21.0000 	   55.4907
    0.5112 	   46.3160 	    4.0000 	   21.0000 	   57.6078
    0.3586 	   46.8448 	    4.0000 	   21.0000 	   59.7229
    0.3433 	   47.3778 	    4.0000 	   22.0000 	    1.8550
    0.4807 	   47.8983 	    4.0000 	   22.0000 	    3.9371
    0.4959 	   48.4193 	    4.0000 	   22.0000 	    6.0213
    0.5264 	   48.9510 	    4.0000 	   22.0000 	    8.1484
    0.4196 	   49.4803 	    4.0000 	   22.0000 	   10.2645
    0.4959 	   50.0195 	    4.0000 	   22.0000 	   12.4216
    0.3891 	   50.5613 	    4.0000 	   22.0000 	   14.5888
    0.3891 	   51.1090 	    4.0000 	   22.0000 	   16.7799
    0.4349 	   51.6510 	    4.0000 	   22.0000 	   18.9480
    0.3738 	   52.1958 	    4.0000 	   22.0000 	   21.1271
    0.2060 	   52.7493 	    4.0000 	   22.0000 	   23.3413
    0.4959 	   53.2985 	    4.0000 	   22.0000 	   25.5384
    0.3586 	   53.8493 	    4.0000 	   22.0000 	   27.7405
    0.3128 	   54.4075 	    4.0000 	   22.0000 	   29.9736
    0.2518 	   54.9545 	    4.0000 	   22.0000 	   32.1618
    0.5417 	   55.5113 	    4.0000 	   22.0000 	   34.3889
    0.3281 	   56.0750 	    4.0000 	   22.0000 	   36.6440
    0.3433 	   56.6373 	    4.0000 	   22.0000 	   38.8931
    0.1602 	   57.1990 	    4.0000 	   22.0000 	   41.1403
    0.0687 	   57.7768 	    4.0000 	   22.0000 	   43.4514
    0.3738 	   58.3540 	    4.0000 	   22.0000 	   45.7595
    0.2518 	   58.9313 	    4.0000 	   22.0000 	   48.0687
    0.3738 	   59.5080 	    4.0000 	   22.0000 	   50.3758
    0.3128 	   60.0795 	    4.0000 	   22.0000 	   52.6619
    0.2823 	   60.6555 	    4.0000 	   22.0000 	   54.9661
    0.3738 	   61.2263 	    4.0000 	   22.0000 	   57.2492
    0.3738 	   61.8090 	    4.0000 	   22.0000 	   59.5803
    0.2060 	   62.3925 	    4.0000 	   23.0000 	    1.9145
    0.2060 	   62.9725 	    4.0000 	   23.0000 	    4.2336
    0.3586 	   63.5658 	    4.0000 	   23.0000 	    6.6067
    0.4196 	   64.1665 	    4.0000 	   23.0000 	    9.0099
    0.6027 	   64.7633 	    4.0000 	   23.0000 	   11.3970
    0.2060 	   65.3590 	    4.0000 	   23.0000 	   13.7801
    0.3281 	   65.9535 	    4.0000 	   23.0000 	   16.1583
    0.1602 	   66.5565 	    4.0000 	   23.0000 	   18.5704
    0.1755 	   67.1540 	    4.0000 	   23.0000 	   20.9596
    0.2060 	   67.7493 	    4.0000 	   23.0000 	   23.3407
    0.2060 	   68.3610 	    4.0000 	   23.0000 	   25.7878
    0.3128 	   68.9713 	    4.0000 	   23.0000 	   28.2290
    0.3586 	   69.5823 	    4.0000 	   23.0000 	   30.6731
    0.2060 	   70.1955 	    4.0000 	   23.0000 	   33.1262
    0.1602 	   70.8098 	    4.0000 	   23.0000 	   35.5834
    0.2060 	   71.4300 	    4.0000 	   23.0000 	   38.0635
    0.2518 	   72.0523 	    4.0000 	   23.0000 	   40.5527
    0.3586 	   72.6685 	    4.0000 	   23.0000 	   43.0178
    0.2213 	   73.2875 	    4.0000 	   23.0000 	   45.4940
    0.1602 	   73.9065 	    4.0000 	   23.0000 	   47.9701
    0.3433 	   74.5330 	    4.0000 	   23.0000 	   50.4762
    0.3128 	   75.1640 	    4.0000 	   23.0000 	   53.0004
    0.1907 	   75.8018 	    4.0000 	   23.0000 	   55.5505
    0.0839 	   76.4373 	    4.0000 	   23.0000 	   58.0927
    0.1450 	   77.0873 	    4.0000 	   24.0000 	    0.6928
    0.1755 	   77.7330 	    4.0000 	   24.0000 	    3.2760
    0.2670 	   78.3798 	    4.0000 	   24.0000 	    5.8631
    0.1144 	   79.0193 	    4.0000 	   24.0000 	    8.4213
    0.1450 	   79.4693 	    4.0000 	   24.0000 	   10.2214

File: fabric_1W15L_drag30_spd15_nonstop.txt
Thayer School of Engineering        Instron 4442 Mechanical Testing System
6/28/2018 4:10:30 AM

  Force (N)	Extension (mm)	Not Used	Not Used	Not Used	     Hour	    Minute	    Second
    0.0992 	    0.2548 	    4.0000 	   11.0000 	    0.5762
    0.1297 	    0.6438 	    4.0000 	   11.0000 	    2.1323
    0.0992 	    0.9600 	    4.0000 	   11.0000 	    3.3974
    0.1755 	    1.2100 	    4.0000 	   11.0000 	    4.3974
    0.2518 	    1.4498 	    4.0000 	   11.0000 	    5.3565
    0.2518 	    1.6975 	    4.0000 	   11.0000 	    6.3475
    0.0687 	    1.9368 	    4.0000 	   11.0000 	    7.3046
    0.3281 	    2.1753 	    4.0000 	   11.0000 	    8.2586
    0.1907 	    2.4238 	    4.0000 	   11.0000 	    9.2527
    0.2060 	    2.6630 	    4.0000 	   11.0000 	   10.2098
    0.2365 	    2.9125 	    4.0000 	   11.0000 	   11.2078
    0.1297 	    3.1573 	    4.0000 	   11.0000 	   12.1869
    0.1297 	    3.4043 	    4.0000 	   11.0000 	   13.1739
    0.2365 	    3.6503 	    4.0000 	   11.0000 	   14.1580
    0.1602 	    3.9010 	    4.0000 	   11.0000 	   15.1610
    0.1602 	    4.1475 	    4.0000 	   11.0000 	   16.1471
    0.2518 	    4.3898 	    4.0000 	   11.0000 	   17.1161
    0.1297 	    4.6463 	    4.0000 	   11.0000 	   18.1422
    0.3281 	    4.9075 	    4.0000 	   11.0000 	   19.1873
    0.1907 	    5.1695 	    4.0000 	   11.0000 	   20.2353
    0.3281 	    5.4235 	    4.0000 	   11.0000 	   21.2514
    0.2060 	    5.6888 	    4.0000 	   11.0000 	   22.3124
    0.1907 	    5.9618 	    4.0000 	   11.0000 	   23.4045
    0.4654 	    6.2305 	    4.0000 	   11.0000 	   24.4796
    0.2060 	    6.5050 	    4.0000 	   11.0000 	   25.5776
    0.2365 	    6.7800 	    4.0000 	   11.0000 	   26.6777
    0.2060 	    7.0578 	    4.0000 	   11.0000 	   27.7888
    0.2823 	    7.3395 	    4.0000 	   11.0000 	   28.9158
    0.1450 	    7.6170 	    4.0000 	   11.0000 	   30.0259
    0.1755 	    7.9000 	    4.0000 	   11.0000 	   31.1570
    0.2518 	    8.1798 	    4.0000 	   11.0000 	   32.2760
    0.1144 	    8.4753 	    4.0000 	   11.0000 	   33.4581
    0.1297 	    8.7675 	    4.0000 	   11.0000 	   34.6272
    0.2213 	    9.0525 	    4.0000 	   11.0000 	   35.7672
    0.2976 	    9.3365 	    4.0000 	   11.0000 	   36.9033
    0.3281 	    9.6343 	    4.0000 	   11.0000 	   38.0944
    0.2518 	    9.9245 	    4.0000 	   11.0000 	   39.2554
    0.2670 	   10.2313 	    4.0000 	   11.0000 	   40.4825
    0.4349 	   10.5170 	    4.0000 	   11.0000 	   41.6256
    0.1602 	   10.8158 	    4.0000 	   11.0000 	   42.8206
    0.2518 	   11.1263 	    4.0000 	   11.0000 	   44.0627
    0.4654 	   11.4375 	    4.0000 	   11.0000 	   45.3078
    0.2823 	   11.7550 	    4.0000 	   11.0000 	   46.5778
    0.1755 	   12.0690 	    4.0000 	   11.0000 	   47.8329
    0.3891 	   12.3808 	    4.0000 	   11.0000 	   49.0800
    0.2976 	   12.6913 	    4.0000 	   11.0000 	   50.3221
    0.2365 	   13.0090 	    4.0000 	   11.0000 	   51.5921
    0.2518 	   13.3225 	    4.0000 	   11.0000 	   52.8472
    0.3738 	   13.6390 	    4.0000 	   11.0000 	   54.1133
    0.3433 	   13.9523 	    4.0000 	   11.0000 	   55.3663
    0.4501 	   14.2628 	    4.0000 	   11.0000 	   56.6084
    0.3891 	   14.5830 	    4.0000 	   11.0000 	   57.8895
    0.3433 	   14.9105 	    4.0000 	   11.0000 	   59.1996
    0.1450 	   15.2430 	    4.0000 	   12.0000 	    0.5296
    0.2518 	   15.5680 	    4.0000 	   12.0000 	    1.8297
    0.3281 	   15.8830 	    4.0000 	   12.0000 	    3.0898
    0.2823 	   16.1995 	    4.0000 	   12.0000 	    4.3559
    0.4807 	   16.5240 	    4.0000 	   12.0000 	    5.6529
    0.4807 	   16.8428 	    4.0000 	   12.0000 	    6.9280
    0.2823 	   17.1753 	    4.0000 	   12.0000 	    8.2581
    0.0687 	   17.5185 	    4.0000 	   12.0000 	    9.6312
    0.2518 	   17.8598 	    4.0000 	   12.0000 	   10.9962
    0.3281 	   18.1958 	    4.0000 	   12.0000 	   12.3403
    0.2518 	   18.5288 	    4.0000 	   12.0000 	   13.6724
    0.4807 	   18.8525 	    4.0000 	   12.0000 	   14.9675
    0.3586 	   19.1945 	    4.0000 	   12.0000 	   16.3355
    0.3891 	   19.5320 	    4.0000 	   12.0000 	   17.6856
    0.5570 	   19.8770 	    4.0000 	   12.0000 	   19.0657
    0.4349 	   20.2205 	    4.0000 	   12.0000 	   20.4398
    0.4044 	   20.5658 	    4.0000 	   12.0000 	   21.8209
    0.3586 	   20.9085 	    4.0000 	   12.0000 	   23.1909
    0.4959 	   21.2605 	    4.0000 	   12.0000 	   24.5990
    0.5112 	   21.6168 	    4.0000 	   12.0000 	   26.0241
    0.5264 	   21.9720 	    4.0000 	   12.0000 	   27.4452
    0.4807 	   22.3365 	    4.0000 	   12.0000 	   28.9033
    0.4349 	   22.6863 	    4.0000 	   12.0000 	   30.3023
    0.3738 	   23.0505 	    4.0000 	   12.0000 	   31.7594
    0.4196 	   23.4003 	    4.0000 	   12.0000 	   33.1585
    0.4959 	   23.7575 	    4.0000 	   12.0000 	   34.5876
    0.4501 	   24.1220 	    4.0000 	   12.0000 	   36.0457
    0.3738 	   24.4958 	    4.0000 	   12.0000 	   37.5408
    0.3891 	   24.8545 	    4.0000 	   12.0000 	   38.9758
    0.5417 	   25.2200 	    4.0000 	   12.0000 	   40.4369
    0.4196 	   25.5870 	    4.0000 	   12.0000 	   41.9050
    0.3433 	   25.9535 	    4.0000 	   12.0000 	   43.3711
    0.4349 	   26.3175 	    4.0000 	   12.0000 	   44.8272
    0.5264 	   26.6850 	    4.0000 	   12.0000 	   46.2973
    0.4044 	   27.0540 	    4.0000 	   12.0000 	   47.7733
    0.3891 	   27.4263 	    4.0000 	   12.0000 	   49.2624
    0.4959 	   27.8038 	    4.0000 	   12.0000 	   50.7725
    0.6485 	   28.1830 	    4.0000 	   12.0000 	   52.2896
    0.4807 	   28.5603 	    4.0000 	   12.0000 	   53.7987
    0.4654 	   28.9438 	    4.0000 	   12.0000 	   55.3328
    0.4654 	   29.3205 	    4.0000 	   12.0000 	   56.8399
    0.4501 	   29.6965 	    4.0000 	   12.0000 	   58.3429
    0.4044 	   30.0715 	    4.0000 	   12.0000 	   59.8430
    0.6332 	   30.4510 	    4.0000 	   13.0000 	    1.3611
    0.4349 	   30.8320 	    4.0000 	   13.0000 	    2.8852
    0.5264 	   31.2078 	    4.0000 	   13.0000 	    4.3883
    0.3128 	   31.5905 	    4.0000 	   13.0000 	    5.9194
    0.3586 	   31.9705 	    4.0000 	   13.0000 	    7.4395
    0.3738 	   32.3563 	    4.0000 	   13.0000 	    8.9825
    0.3891 	   32.7450 	    4.0000 	   13.0000 	   10.5376
    0.3128 	   33.1350 	    4.0000 	   13.0000 	   12.0977
    0.3586 	   33.5223 	    4.0000 	   13.0000 	   13.6468
    0.4654 	   33.9315 	    4.0000 	   13.0000 	   15.2829
    0.3891 	   34.3205 	    4.0000 	   13.0000 	   16.8390
    0.3586 	   34.7120 	    4.0000 	   13.0000 	   18.4051
    0.4501 	   35.1095 	    4.0000 	   13.0000 	   19.9952
    0.3433 	   35.5098 	    4.0000 	   13.0000 	   21.5963
    0.1450 	   35.9078 	    4.0000 	   13.0000 	   23.1884
    0.3891 	   36.3070 	    4.0000 	   13.0000 	   24.7855
    0.3891 	   36.7138 	    4.0000 	   13.0000 	   26.4125
    0.3891 	   37.1123 	    4.0000 	   13.0000 	   28.0066
    0.3433 	   37.5135 	    4.0000 	   13.0000 	   29.6117
    0.3128 	   37.9180 	    4.0000 	   13.0000 	   31.2298
    0.4349 	   38.3293 	    4.0000 	   13.0000 	   32.8739
    0.3586 	   38.7408 	    4.0000 	   13.0000 	   34.5200
    0.2518 	   39.1395 	    4.0000 	   13.0000 	   36.1151
    0.2518 	   39.5483 	    4.0000 	   13.0000 	   37.7502
    0.0381 	   39.9678 	    4.0000 	   13.0000 	   39.4283
    0.2823 	   40.3805 	    4.0000 	   13.0000 	   41.0794
    0.3586 	   40.7968 	    4.0000 	   13.0000 	   42.7445
    0.1602 	   41.2150 	    4.0000 	   13.0000 	   44.4176
    0.2365 	   41.6365 	    4.0000 	   13.0000 	   46.1037
    0.2060 	   42.0598 	    4.0000 	   13.0000 	   47.7968
    0.3128 	   42.4828 	    4.0000 	   13.0000 	   49.4889
    0.1450 	   42.9050 	    4.0000 	   13.0000 	   51.1770
    0.2670 	   43.3333 	    4.0000 	   13.0000 	   52.8901
    0.3281 	   43.7525 	    4.0000 	   13.0000 	   54.5672
    0.2518 	   44.1820 	    4.0000 	   13.0000 	   56.2853
    0.2823 	   44.6088 	    4.0000 	   13.0000 	   57.9924
    0.3738 	   45.0310 	    4.0000 	   13.0000 	   59.6814
    0.2976 	   45.4758 	    4.0000 	   14.0000 	    1.4606
    0.1755 	   45.9068 	    4.0000 	   14.0000 	    3.1846
    0.2213 	   46.3455 	    4.0000 	   14.0000 	    4.9397
    0.1755 	   46.8050 	    4.0000 	   14.0000 	    6.7779
    0.0687 	   47.2568 	    4.0000 	   14.0000 	    8.5840
    0.3586 	   47.7040 	    4.0000 	   14.0000 	   10.3731
    0.1602 	   48.1463 	    4.0000 	   14.0000 	   12.1422
    0.2365 	   48.5925 	    4.0000 	   14.0000 	   13.9273
    0.2670 	   49.0383 	    4.0000 	   14.0000 	   15.7104
    0.3586 	   49.4900 	    4.0000 	   14.0000 	   17.5175
    0.2365 	   49.9313 	    4.0000 	   14.0000 	   19.2826
    0.1907 	   50.3788 	    4.0000 	   14.0000 	   21.0727
    0.1602 	   50.8250 	    4.0000 	   14.0000 	   22.8578
    0.1907 	   51.2800 	    4.0000 	   14.0000 	   24.6779
    0.3281 	   51.7353 	    4.0000 	   14.0000 	   26.4980
    0.1907 	   52.1898 	    4.0000 	   14.0000 	   28.3161
    0.1450 	   52.6500 	    4.0000 	   14.0000 	   30.1572
    0.1144 	   53.1055 	    4.0000 	   14.0000 	   31.9793
    0.2670 	   53.5673 	    4.0000 	   14.0000 	   33.8264
    0.3891 	   54.0283 	    4.0000 	   14.0000 	   35.6705
    0.1297 	   54.4890 	    4.0000 	   14.0000 	   37.5136
    0.1297 	   54.9595 	    4.0000 	   14.0000 	   39.3957
    0.0992 	   55.4260 	    4.0000 	   14.0000 	   41.2618
    0.1144 	   55.8908 	    4.0000 	   14.0000 	   43.1199
    0.2213 	   56.3573 	    4.0000 	   14.0000 	   44.9860
   -0.0992 	   56.8210 	    4.0000 	   14.0000 	   46.8411
    0.0229 	   57.2958 	    4.0000 	   14.0000 	   48.7403
    0.2060 	   57.7673 	    4.0000 	   14.0000 	   50.6264
    0.2060 	   58.2345 	    4.0000 	   14.0000 	   52.4955
    0.1450 	   58.7073 	    4.0000 	   14.0000 	   54.3866
    0.1450 	   59.1835 	    4.0000 	   14.0000 	   56.2917
    0.0229 	   59.6568 	    4.0000 	   14.0000 	   58.1848
    0.2213 	   60.1210 	    4.0000 	   15.0000 	    0.0419
    0.0687 	   60.4153 	    4.0000 	   15.0000 	    1.2180