Folder: Smart-Fabrics/instron (part 8)

File: fabric_2W15L_drag30_spd15_nonstop.txt
Thayer School of Engineering        Instron 4442 Mechanical Testing System
6/28/2018 3:42:12 AM

  Force (N)	Extension (mm)	Not Used	Not Used	Not Used	     Hour	    Minute	    Second
    0.1907 	    0.2563 	    3.0000 	   42.0000 	   39.3139
    0.2213 	    0.6938 	    3.0000 	   42.0000 	   41.0640
    0.1907 	    0.9815 	    3.0000 	   42.0000 	   42.2151
    0.0076 	    1.2390 	    3.0000 	   42.0000 	   43.2451
    0.1297 	    1.4703 	    3.0000 	   42.0000 	   44.1702
    0.1755 	    1.7073 	    3.0000 	   42.0000 	   45.1182
    0.0839 	    1.9390 	    3.0000 	   42.0000 	   46.0453
    0.2365 	    2.1748 	    3.0000 	   42.0000 	   46.9883
    0.1450 	    2.4175 	    3.0000 	   42.0000 	   47.9594
    0.0992 	    2.6665 	    3.0000 	   42.0000 	   48.9554
    0.2213 	    2.9020 	    3.0000 	   42.0000 	   49.8975
    0.2060 	    3.1345 	    3.0000 	   42.0000 	   50.8276
    0.1602 	    3.3625 	    3.0000 	   42.0000 	   51.7396
    0.1602 	    3.5988 	    3.0000 	   42.0000 	   52.6847
    0.0839 	    3.8353 	    3.0000 	   42.0000 	   53.6307
    0.1297 	    4.0877 	    3.0000 	   42.0000 	   54.6408
    0.1755 	    4.3507 	    3.0000 	   42.0000 	   55.6918
    0.2213 	    4.6055 	    3.0000 	   42.0000 	   56.7109
    0.2213 	    4.8465 	    3.0000 	   42.0000 	   57.6749
    0.4196 	    5.0913 	    3.0000 	   42.0000 	   58.6540
    0.2823 	    5.3385 	    3.0000 	   42.0000 	   59.6431
    0.2670 	    5.5970 	    3.0000 	   43.0000 	    0.6771
    0.3891 	    5.8575 	    3.0000 	   43.0000 	    1.7192
    0.3738 	    6.1203 	    3.0000 	   43.0000 	    2.7702
    0.2976 	    6.3863 	    3.0000 	   43.0000 	    3.8343
    0.1450 	    6.6573 	    3.0000 	   43.0000 	    4.9184
    0.2518 	    6.9315 	    3.0000 	   43.0000 	    6.0154
    0.2518 	    7.2038 	    3.0000 	   43.0000 	    7.1045
    0.3738 	    7.4805 	    3.0000 	   43.0000 	    8.2116
    0.3281 	    7.7605 	    3.0000 	   43.0000 	    9.3316
    0.3891 	    8.0385 	    3.0000 	   43.0000 	   10.4437
    0.3891 	    8.3183 	    3.0000 	   43.0000 	   11.5627
    0.4044 	    8.6045 	    3.0000 	   43.0000 	   12.7078
    0.3281 	    8.8995 	    3.0000 	   43.0000 	   13.8869
    0.4654 	    9.1988 	    3.0000 	   43.0000 	   15.0839
    0.3433 	    9.4843 	    3.0000 	   43.0000 	   16.2260
    0.3891 	    9.7713 	    3.0000 	   43.0000 	   17.3741
    0.2518 	   10.0638 	    3.0000 	   43.0000 	   18.5441
    0.3738 	   10.3575 	    3.0000 	   43.0000 	   19.7192
    0.2670 	   10.6615 	    3.0000 	   43.0000 	   20.9353
    0.3891 	   10.9713 	    3.0000 	   43.0000 	   22.1744
    0.4654 	   11.2818 	    3.0000 	   43.0000 	   23.4164
    0.2518 	   11.5813 	    3.0000 	   43.0000 	   24.6145
    0.2976 	   11.8970 	    3.0000 	   43.0000 	   25.8776
    0.4044 	   12.2160 	    3.0000 	   43.0000 	   27.1536
    0.2976 	   12.5323 	    3.0000 	   43.0000 	   28.4187
    0.4349 	   12.8418 	    3.0000 	   43.0000 	   29.6568
    0.2365 	   13.1558 	    3.0000 	   43.0000 	   30.9118
    0.2823 	   13.4728 	    3.0000 	   43.0000 	   32.1799
    0.3433 	   13.7860 	    3.0000 	   43.0000 	   33.4330
    0.3433 	   14.1003 	    3.0000 	   43.0000 	   34.6901
    0.4349 	   14.4100 	    3.0000 	   43.0000 	   35.9291
    0.4654 	   14.7315 	    3.0000 	   43.0000 	   37.2152
    0.2365 	   15.0425 	    3.0000 	   43.0000 	   38.4593
    0.3586 	   15.3670 	    3.0000 	   43.0000 	   39.7574
    0.3281 	   15.6930 	    3.0000 	   43.0000 	   41.0614
    0.4349 	   16.0093 	    3.0000 	   43.0000 	   42.3265
    0.4959 	   16.3363 	    3.0000 	   43.0000 	   43.6336
    0.5264 	   16.6648 	    3.0000 	   43.0000 	   44.9487
    0.2823 	   16.9915 	    3.0000 	   43.0000 	   46.2557
    0.4349 	   17.3208 	    3.0000 	   43.0000 	   47.5728
    0.3281 	   17.6570 	    3.0000 	   43.0000 	   48.9169
    0.4654 	   17.9940 	    3.0000 	   43.0000 	   50.2650
    0.4501 	   18.3298 	    3.0000 	   43.0000 	   51.6080
    0.6332 	   18.6570 	    3.0000 	   43.0000 	   52.9171
    0.3586 	   18.9908 	    3.0000 	   43.0000 	   54.2522
    0.4349 	   19.3258 	    3.0000 	   43.0000 	   55.5923
    0.4807 	   19.6568 	    3.0000 	   43.0000 	   56.9163
    0.4044 	   20.0018 	    3.0000 	   43.0000 	   58.2964
    0.4349 	   20.3480 	    3.0000 	   43.0000 	   59.6815
    0.5875 	   20.6815 	    3.0000 	   44.0000 	    1.0156
    0.4349 	   21.0228 	    3.0000 	   44.0000 	    2.3806
    0.4501 	   21.3625 	    3.0000 	   44.0000 	    3.7397
    0.5112 	   21.7020 	    3.0000 	   44.0000 	    5.0978
    0.5875 	   22.0588 	    3.0000 	   44.0000 	    6.5239
    0.4959 	   22.4068 	    3.0000 	   44.0000 	    7.9160
    0.6332 	   22.7555 	    3.0000 	   44.0000 	    9.3110
    0.4807 	   23.0973 	    3.0000 	   44.0000 	   10.6781
    0.4044 	   23.4450 	    3.0000 	   44.0000 	   12.0692
    0.7706 	   23.7903 	    3.0000 	   44.0000 	   13.4503
    0.5722 	   24.1358 	    3.0000 	   44.0000 	   14.8324
    0.5722 	   24.4943 	    3.0000 	   44.0000 	   16.2664
    0.6485 	   24.8510 	    3.0000 	   44.0000 	   17.6935
    0.7095 	   25.2015 	    3.0000 	   44.0000 	   19.0956
    0.5417 	   25.5675 	    3.0000 	   44.0000 	   20.5597
    0.6332 	   25.9263 	    3.0000 	   44.0000 	   21.9948
    0.6332 	   26.2933 	    3.0000 	   44.0000 	   23.4619
    0.5264 	   26.6558 	    3.0000 	   44.0000 	   24.9119
    0.6790 	   27.0080 	    3.0000 	   44.0000 	   26.3210
    0.7401 	   27.3700 	    3.0000 	   44.0000 	   27.7691
    0.5875 	   27.7250 	    3.0000 	   44.0000 	   29.1892
    0.6943 	   28.0768 	    3.0000 	   44.0000 	   30.5963
    0.6180 	   28.4245 	    3.0000 	   44.0000 	   31.9873
    0.6943 	   28.7830 	    3.0000 	   44.0000 	   33.4214
    0.7248 	   29.1430 	    3.0000 	   44.0000 	   34.8615
    0.7706 	   29.4975 	    3.0000 	   44.0000 	   36.2796
    0.6638 	   29.8540 	    3.0000 	   44.0000 	   37.7057
    0.6485 	   30.2198 	    3.0000 	   44.0000 	   39.1688
    0.7706 	   30.5865 	    3.0000 	   44.0000 	   40.6348
    0.5570 	   30.9535 	    3.0000 	   44.0000 	   42.1029
    0.8011 	   31.3230 	    3.0000 	   44.0000 	   43.5810
    0.6790 	   31.7003 	    3.0000 	   44.0000 	   45.0901
    0.4654 	   32.0690 	    3.0000 	   44.0000 	   46.5652
    0.4807 	   32.4450 	    3.0000 	   44.0000 	   48.0693
    0.5417 	   32.8185 	    3.0000 	   44.0000 	   49.5633
    0.5112 	   33.1978 	    3.0000 	   44.0000 	   51.0804
    0.5264 	   33.5748 	    3.0000 	   44.0000 	   52.5885
    0.6027 	   33.9503 	    3.0000 	   44.0000 	   54.0906
    0.3128 	   34.3288 	    3.0000 	   44.0000 	   55.6047
    0.6180 	   34.7095 	    3.0000 	   44.0000 	   57.1278
    0.5722 	   35.0945 	    3.0000 	   44.0000 	   58.6669
    0.6180 	   35.4823 	    3.0000 	   45.0000 	    0.2180
    0.5722 	   35.8658 	    3.0000 	   45.0000 	    1.7520
    0.3891 	   36.2508 	    3.0000 	   45.0000 	    3.2921
    0.1297 	   36.6393 	    3.0000 	   45.0000 	    4.8462
    0.4349 	   37.0275 	    3.0000 	   45.0000 	    6.3993
    0.4501 	   37.4218 	    3.0000 	   45.0000 	    7.9764
    0.5722 	   37.8198 	    3.0000 	   45.0000 	    9.5685
    0.4959 	   38.2280 	    3.0000 	   45.0000 	   11.2016
    0.4654 	   38.6278 	    3.0000 	   45.0000 	   12.8007
    0.3891 	   39.0410 	    3.0000 	   45.0000 	   14.4538
    0.4501 	   39.4468 	    3.0000 	   45.0000 	   16.0759
    0.5112 	   39.8523 	    3.0000 	   45.0000 	   17.6980
    0.5264 	   40.2703 	    3.0000 	   45.0000 	   19.3701
    0.4654 	   40.6748 	    3.0000 	   45.0000 	   20.9881
    0.3128 	   41.0865 	    3.0000 	   45.0000 	   22.6352
    0.3586 	   41.4973 	    3.0000 	   45.0000 	   24.2783
    0.3281 	   41.9058 	    3.0000 	   45.0000 	   25.9124
    0.5264 	   42.3240 	    3.0000 	   45.0000 	   27.5855
    0.3891 	   42.7413 	    3.0000 	   45.0000 	   29.2546
    0.3128 	   43.1585 	    3.0000 	   45.0000 	   30.9237
    0.2976 	   43.5868 	    3.0000 	   45.0000 	   32.6368
    0.3586 	   44.0125 	    3.0000 	   45.0000 	   34.3389
    0.3128 	   44.4343 	    3.0000 	   45.0000 	   36.0260
    0.2518 	   44.8688 	    3.0000 	   45.0000 	   37.7641
    0.3738 	   45.2995 	    3.0000 	   45.0000 	   39.4872
    0.2518 	   45.7350 	    3.0000 	   45.0000 	   41.2293
    0.2365 	   46.1650 	    3.0000 	   45.0000 	   42.9494
    0.3433 	   46.5990 	    3.0000 	   45.0000 	   44.6855
    0.2823 	   47.0308 	    3.0000 	   45.0000 	   46.4126
    0.2518 	   47.4640 	    3.0000 	   45.0000 	   48.1457
    0.2213 	   47.8953 	    3.0000 	   45.0000 	   49.8708
    0.2670 	   48.3350 	    3.0000 	   45.0000 	   51.6289
    0.3433 	   48.7828 	    3.0000 	   45.0000 	   53.4200
    0.2670 	   49.2220 	    3.0000 	   45.0000 	   55.1771
    0.4349 	   49.6568 	    3.0000 	   45.0000 	   56.9162
    0.2823 	   50.0918 	    3.0000 	   45.0000 	   58.6563
    0.2060 	   50.5365 	    3.0000 	   46.0000 	    0.4354
    0.2823 	   50.9853 	    3.0000 	   46.0000 	    2.2305
    0.1450 	   51.4293 	    3.0000 	   46.0000 	    4.0066
    0.2213 	   51.8770 	    3.0000 	   46.0000 	    5.7977
    0.2213 	   52.3295 	    3.0000 	   46.0000 	    7.6078
    0.1297 	   52.7808 	    3.0000 	   46.0000 	    9.4119
    0.2213 	   53.2328 	    3.0000 	   46.0000 	   11.2200
    0.1755 	   53.6835 	    3.0000 	   46.0000 	   13.0231
    0.1755 	   54.1528 	    3.0000 	   46.0000 	   14.9002
    0.1755 	   54.6098 	    3.0000 	   46.0000 	   16.7283
    0.1297 	   55.0723 	    3.0000 	   46.0000 	   18.5784
    0.1907 	   55.5270 	    3.0000 	   46.0000 	   20.3975
    0.1602 	   55.9953 	    3.0000 	   46.0000 	   22.2707
    0.1450 	   56.4560 	    3.0000 	   46.0000 	   24.1138
    0.1297 	   56.9253 	    3.0000 	   46.0000 	   25.9899
    0.3433 	   57.4013 	    3.0000 	   46.0000 	   27.8940
    0.2060 	   57.8600 	    3.0000 	   46.0000 	   29.7291
    0.0381 	   58.3293 	    3.0000 	   46.0000 	   31.6062
    0.1450 	   58.7995 	    3.0000 	   46.0000 	   33.4873
    0.1144 	   59.2663 	    3.0000 	   46.0000 	   35.3544
    0.1297 	   59.7138 	    3.0000 	   46.0000 	   37.1445
   -0.0992 	   60.1640 	    3.0000 	   46.0000 	   38.9456
    0.1297 	   60.5903 	    3.0000 	   46.0000 	   40.6507

File: good1.txt
Thayer School of Engineering        Instron 4442 Mechanical Testing System
6/27/2018 11:23:16 PM

  Force (N)	Extension (mm)	Not Used	Not Used	Not Used	     Hour	    Minute	    Second
   -0.0534 	    0.2565 	   23.0000 	   23.0000 	   35.4528
    0.1144 	    0.8443 	   23.0000 	   23.0000 	   37.8040
    0.1602 	    1.2413 	   23.0000 	   23.0000 	   39.3921
   -0.0534 	    1.6208 	   23.0000 	   23.0000 	   40.9092
   -0.0687 	    2.0065 	   23.0000 	   23.0000 	   42.4512
    0.1297 	    2.3900 	   23.0000 	   23.0000 	   43.9863
    0.1755 	    2.7755 	   23.0000 	   23.0000 	   45.5284
    0.2213 	    3.1700 	   23.0000 	   23.0000 	   47.1065
    0.1144 	    3.5593 	   23.0000 	   23.0000 	   48.6636
    0.4349 	    3.9585 	   23.0000 	   23.0000 	   50.2607
    0.4501 	    4.3393 	   23.0000 	   23.0000 	   51.7838
    0.7095 	    4.7352 	   23.0000 	   23.0000 	   53.3679
    0.6638 	    5.1245 	   23.0000 	   23.0000 	   54.9250
    0.9384 	    5.5303 	   23.0000 	   23.0000 	   56.5480
    1.0758 	    5.9245 	   23.0000 	   23.0000 	   58.1241
    1.3046 	    6.3390 	   23.0000 	   23.0000 	   59.7822
    1.1673 	    6.7288 	   23.0000 	   24.0000 	    1.3413
    1.3504 	    7.1193 	   23.0000 	   24.0000 	    2.9034
    1.3962 	    7.5140 	   23.0000 	   24.0000 	    4.4825
    1.6251 	    7.9315 	   23.0000 	   24.0000 	    6.1526
    1.7624 	    8.3293 	   23.0000 	   24.0000 	    7.7437
    1.7166 	    8.7270 	   23.0000 	   24.0000 	    9.3348
    1.8082 	    9.1428 	   23.0000 	   24.0000 	   10.9979
    2.0066 	    9.5745 	   23.0000 	   24.0000 	   12.7250
    1.9760 	   10.0003 	   23.0000 	   24.0000 	   14.4281
    2.0676 	   10.4233 	   23.0000 	   24.0000 	   16.1192
    2.2812 	   10.8553 	   23.0000 	   24.0000 	   17.8473
    2.2354 	   11.2885 	   23.0000 	   24.0000 	   19.5804
    2.2354 	   11.7083 	   23.0000 	   24.0000 	   21.2595
    2.3117 	   12.1483 	   23.0000 	   24.0000 	   23.0196
    2.3880 	   12.5895 	   23.0000 	   24.0000 	   24.7847
    2.5254 	   13.0353 	   23.0000 	   24.0000 	   26.5678
    2.6474 	   13.4943 	   23.0000 	   24.0000 	   28.4039
    2.7085 	   13.9300 	   23.0000 	   24.0000 	   30.1470
    2.8763 	   14.3555 	   23.0000 	   24.0000 	   31.8491
    2.8916 	   14.8043 	   23.0000 	   24.0000 	   33.6432
    2.9984 	   15.2300 	   23.0000 	   24.0000 	   35.3463
    3.1052 	   15.6615 	   23.0000 	   24.0000 	   37.0724
    3.0442 	   16.1138 	   23.0000 	   24.0000 	   38.8815
    3.1052 	   16.5573 	   23.0000 	   24.0000 	   40.6556
    3.2883 	   16.9910 	   23.0000 	   24.0000 	   42.3907
    3.3036 	   17.4363 	   23.0000 	   24.0000 	   44.1718
    3.3799 	   17.8685 	   23.0000 	   24.0000 	   45.9009
    3.4867 	   18.3033 	   23.0000 	   24.0000 	   47.6400
    3.7308 	   18.7273 	   23.0000 	   24.0000 	   49.3361
    3.8682 	   19.1723 	   23.0000 	   24.0000 	   51.1152
    3.9445 	   19.6215 	   23.0000 	   24.0000 	   52.9123
    3.9902 	   20.0925 	   23.0000 	   24.0000 	   54.7964
    4.1581 	   20.5538 	   23.0000 	   24.0000 	   56.6415
    4.0208 	   21.0135 	   23.0000 	   24.0000 	   58.4806
    4.2802 	   21.4685 	   23.0000 	   25.0000 	    0.3007
    4.4633 	   21.9510 	   23.0000 	   25.0000 	    2.2308
    4.4327 	   22.4203 	   23.0000 	   25.0000 	    4.1079
    4.3565 	   22.8905 	   23.0000 	   25.0000 	    5.9890
    4.7990 	   23.3693 	   23.0000 	   25.0000 	    7.9031
    4.9210 	   23.8328 	   23.0000 	   25.0000 	    9.7572
    4.9210 	   24.2993 	   23.0000 	   25.0000 	   11.6233
    5.1347 	   24.7668 	   23.0000 	   25.0000 	   13.4934
    5.2262 	   25.2325 	   23.0000 	   25.0000 	   15.3566
    5.5161 	   25.7295 	   23.0000 	   25.0000 	   17.3447
    5.5619 	   26.2185 	   23.0000 	   25.0000 	   19.3008
    5.6535 	   26.7068 	   23.0000 	   25.0000 	   21.2539
    6.0502 	   27.1830 	   23.0000 	   25.0000 	   23.1590
    6.0044 	   27.6605 	   23.0000 	   25.0000 	   25.0691
    6.1418 	   28.1570 	   23.0000 	   25.0000 	   27.0542
    6.4469 	   28.6535 	   23.0000 	   25.0000 	   29.0403
    6.6300 	   29.1665 	   23.0000 	   25.0000 	   31.0925
    6.7674 	   29.6688 	   23.0000 	   25.0000 	   33.1016
    6.9810 	   30.1753 	   23.0000 	   25.0000 	   35.1277
    7.2557 	   30.6673 	   23.0000 	   25.0000 	   37.0958
    7.6524 	   31.1665 	   23.0000 	   25.0000 	   39.0929
    7.7897 	   31.6690 	   23.0000 	   25.0000 	   41.1030
    8.2017 	   32.1923 	   23.0000 	   25.0000 	   43.1951
    8.4459 	   32.6925 	   23.0000 	   25.0000 	   45.1963
    8.8121 	   33.1828 	   23.0000 	   25.0000 	   47.1574
    9.2546 	   33.6765 	   23.0000 	   25.0000 	   49.1325
    9.7734 	   34.1865 	   23.0000 	   25.0000 	   51.1726
   10.2922 	   34.7165 	   23.0000 	   25.0000 	   53.2927
   10.7652 	   35.2290 	   23.0000 	   25.0000 	   55.3428
   11.4366 	   35.7607 	   23.0000 	   25.0000 	   57.4700
   12.3217 	   36.2935 	   23.0000 	   25.0000 	   59.6011
   13.0388 	   36.8135 	   23.0000 	   26.0000 	    1.6802
   13.8781 	   37.3273 	   23.0000 	   26.0000 	    3.7353
   14.4884 	   37.8428 	   23.0000 	   26.0000 	    5.7974
   15.2514 	   38.3523 	   23.0000 	   26.0000 	    7.8356
   14.9920 	   38.8728 	   23.0000 	   26.0000 	    9.9177
   14.8241 	   39.3928 	   23.0000 	   26.0000 	   11.9978
   14.6868 	   39.9163 	   23.0000 	   26.0000 	   14.0919
   14.3664 	   40.4460 	   23.0000 	   26.0000 	   16.2110
   14.2748 	   40.9693 	   23.0000 	   26.0000 	   18.3032
   14.1985 	   41.5040 	   23.0000 	   26.0000 	   20.4423
   14.0764 	   42.0353 	   23.0000 	   26.0000 	   22.5674
   14.0764 	   42.5633 	   23.0000 	   26.0000 	   24.6795
   13.8628 	   43.0923 	   23.0000 	   26.0000 	   26.7956
   13.8628 	   43.6253 	   23.0000 	   26.0000 	   28.9278
   13.8628 	   44.1623 	   23.0000 	   26.0000 	   31.0759
   13.6797 	   44.6960 	   23.0000 	   26.0000 	   33.2110
   13.7407 	   45.2258 	   23.0000 	   26.0000 	   35.3291
   13.6797 	   45.7648 	   23.0000 	   26.0000 	   37.4853
   13.5576 	   46.3130 	   23.0000 	   26.0000 	   39.6784
   13.6950 	   46.8570 	   23.0000 	   26.0000 	   41.8545
   13.5271 	   47.4043 	   23.0000 	   26.0000 	   44.0436
   13.4508 	   47.9633 	   23.0000 	   26.0000 	   46.2798
   13.4813 	   48.5198 	   23.0000 	   26.0000 	   48.5059
   13.5576 	   49.0915 	   23.0000 	   26.0000 	   50.7930
   13.3440 	   49.6638 	   23.0000 	   26.0000 	   53.0811
   13.2982 	   50.2298 	   23.0000 	   26.0000 	   55.3453
   13.2525 	   50.7963 	   23.0000 	   26.0000 	   57.6114
   13.3135 	   51.3643 	   23.0000 	   26.0000 	   59.8835
   13.3593 	   51.9425 	   23.0000 	   27.0000 	    2.1967
   13.0236 	   52.5195 	   23.0000 	   27.0000 	    4.5048
   13.1914 	   53.0913 	   23.0000 	   27.0000 	    6.7919
   13.1914 	   53.6688 	   23.0000 	   27.0000 	    9.1021
   13.1914 	   54.2638 	   23.0000 	   27.0000 	   11.4812
   13.0999 	   54.8460 	   23.0000 	   27.0000 	   13.8103
   13.2525 	   55.4338 	   23.0000 	   27.0000 	   16.1615
   11.2535 	   56.0390 	   23.0000 	   27.0000 	   18.5826
    9.3767 	   56.6530 	   23.0000 	   27.0000 	   21.0387
    8.3238 	   57.2655 	   23.0000 	   27.0000 	   23.4889
    7.5914 	   57.8698 	   23.0000 	   27.0000 	   25.9060
    6.8589 	   58.4655 	   23.0000 	   27.0000 	   28.2882
    6.3249 	   59.0775 	   23.0000 	   27.0000 	   30.7363
    6.0349 	   59.6890 	   23.0000 	   27.0000 	   33.1824
    5.6840 	   60.2933 	   23.0000 	   27.0000 	   35.5996
    5.3788 	   60.9053 	   23.0000 	   27.0000 	   38.0477
    4.8905 	   61.5305 	   23.0000 	   27.0000 	   40.5489
    4.9210 	   62.1443 	   23.0000 	   27.0000 	   43.0040
    4.6311 	   62.7615 	   23.0000 	   27.0000 	   45.4721
    4.3717 	   63.3898 	   23.0000 	   27.0000 	   47.9853
    4.4022 	   64.0158 	   23.0000 	   27.0000 	   50.4894
    4.2191 	   64.6553 	   23.0000 	   27.0000 	   53.0476
    3.8529 	   65.2835 	   23.0000 	   27.0000 	   55.5607
    3.8834 	   65.9135 	   23.0000 	   27.0000 	   58.0809
    3.7156 	   66.5493 	   23.0000 	   28.0000 	    0.6240
    3.6545 	   67.1893 	   23.0000 	   28.0000 	    3.1832
    3.4104 	   67.8333 	   23.0000 	   28.0000 	    5.7593
    3.3341 	   68.4713 	   23.0000 	   28.0000 	    8.3114
    3.0594 	   69.1128 	   23.0000 	   28.0000 	   10.8776
    3.1052 	   69.7623 	   23.0000 	   28.0000 	   13.4757
    3.1205 	   70.4123 	   23.0000 	   28.0000 	   16.0759
    2.9068 	   71.0573 	   23.0000 	   28.0000 	   18.6560
    2.5711 	   71.7003 	   23.0000 	   28.0000 	   21.2272
    2.5864 	   72.3605 	   23.0000 	   28.0000 	   23.8683
    2.4186 	   73.0133 	   23.0000 	   28.0000 	   26.4795
    2.1744 	   73.6673 	   23.0000 	   28.0000 	   29.0956
    2.2965 	   74.3255 	   23.0000 	   28.0000 	   31.7288
    2.0981 	   74.9805 	   23.0000 	   28.0000 	   34.3489
    2.1286 	   75.6520 	   23.0000 	   28.0000 	   37.0351
    1.9608 	   76.3255 	   23.0000 	   28.0000 	   39.7282
    1.8235 	   76.9938 	   23.0000 	   28.0000 	   42.4014
    1.7319 	   77.6660 	   23.0000 	   28.0000 	   45.0905
    1.7319 	   78.3480 	   23.0000 	   28.0000 	   47.8187
    1.5488 	   79.0220 	   23.0000 	   28.0000 	   50.5149
    1.6556 	   79.6990 	   23.0000 	   28.0000 	   53.2230
    1.3657 	   80.3778 	   23.0000 	   28.0000 	   55.9372
    1.2894 	   81.0563 	   23.0000 	   28.0000 	   58.6513
    1.1673 	   81.7263 	   23.0000 	   29.0000 	    1.3315
    1.0605 	   82.3965 	   23.0000 	   29.0000 	    4.0126
    1.0452 	   83.0708 	   23.0000 	   29.0000 	    6.7098
    0.8927 	   83.7478 	   23.0000 	   29.0000 	    9.4179
    0.9384 	   84.4335 	   23.0000 	   29.0000 	   12.1611
    0.6485 	   85.1123 	   23.0000 	   29.0000 	   14.8753
    0.5570 	   85.7958 	   23.0000 	   29.0000 	   17.6094
    0.4807 	   86.4865 	   23.0000 	   29.0000 	   20.3726
    0.3128 	   87.1900 	   23.0000 	   29.0000 	   23.1867
    0.0687 	   87.9040 	   23.0000 	   29.0000 	   26.0429
    0.0992 	   88.6180 	   23.0000 	   29.0000 	   28.8991
    0.1297 	   88.6530 	   23.0000 	   29.0000 	   29.0391