Folder: Smart-Fabrics/instron (part 9)

File: long_1W15L_drag30_spd15.txt
Thayer School of Engineering        Instron 4442 Mechanical Testing System
6/28/2018 4:33:15 AM

  Force (N)	Extension (mm)	Not Used	Not Used	Not Used	     Hour	    Minute	    Second
   -0.0992 	    0.2563 	    4.0000 	   33.0000 	   51.2286
    0.1450 	    0.6338 	    4.0000 	   33.0000 	   52.7387
    0.1755 	    0.9485 	    4.0000 	   33.0000 	   53.9978
    0.2518 	    1.1898 	    4.0000 	   33.0000 	   54.9628
    0.2060 	    1.4100 	    4.0000 	   33.0000 	   55.8439
    0.2518 	    1.6345 	    4.0000 	   33.0000 	   56.7409
    0.2823 	    1.8523 	    4.0000 	   33.0000 	   57.6120
    0.3738 	    2.0815 	    4.0000 	   33.0000 	   58.5290
    0.1144 	    2.2985 	    4.0000 	   33.0000 	   59.3971
    0.1602 	    2.5190 	    4.0000 	   34.0000 	    0.2791
    0.2213 	    2.7403 	    4.0000 	   34.0000 	    1.1642
    0.2213 	    2.9690 	    4.0000 	   34.0000 	    2.0792
    0.3128 	    3.1963 	    4.0000 	   34.0000 	    2.9883
    0.2365 	    3.4270 	    4.0000 	   34.0000 	    3.9113
    0.2213 	    3.6573 	    4.0000 	   34.0000 	    4.8324
    0.3281 	    3.8893 	    4.0000 	   34.0000 	    5.7604
    0.3433 	    4.1263 	    4.0000 	   34.0000 	    6.7085
    0.2670 	    4.3645 	    4.0000 	   34.0000 	    7.6615
    0.2823 	    4.6123 	    4.0000 	   34.0000 	    8.6526
    0.3128 	    4.8668 	    4.0000 	   34.0000 	    9.6707
    0.2518 	    5.1180 	    4.0000 	   34.0000 	   10.6757
    0.1297 	    5.3685 	    4.0000 	   34.0000 	   11.6778
    0.3128 	    5.6310 	    4.0000 	   34.0000 	   12.7278
    0.2670 	    5.8910 	    4.0000 	   34.0000 	   13.7679
    0.2976 	    6.1550 	    4.0000 	   34.0000 	   14.8230
    0.3128 	    6.4250 	    4.0000 	   34.0000 	   15.9030
    0.1907 	    6.6960 	    4.0000 	   34.0000 	   16.9871
    0.1450 	    6.9650 	    4.0000 	   34.0000 	   18.0631
    0.2518 	    7.2308 	    4.0000 	   34.0000 	   19.1262
    0.2365 	    7.5065 	    4.0000 	   34.0000 	   20.2293
    0.1907 	    7.7823 	    4.0000 	   34.0000 	   21.3323
    0.3128 	    8.0593 	    4.0000 	   34.0000 	   22.4404
    0.2213 	    8.3448 	    4.0000 	   34.0000 	   23.5825
    0.3281 	    8.6238 	    4.0000 	   34.0000 	   24.6985
    0.4044 	    8.9028 	    4.0000 	   34.0000 	   25.8146
    0.2976 	    9.1900 	    4.0000 	   34.0000 	   26.9636
    0.2823 	    9.4765 	    4.0000 	   34.0000 	   28.1097
    0.1907 	    9.7628 	    4.0000 	   34.0000 	   29.2548
    0.2823 	   10.0508 	    4.0000 	   34.0000 	   30.4068
    0.2976 	   10.3473 	    4.0000 	   34.0000 	   31.5919
    0.2976 	   10.6343 	    4.0000 	   34.0000 	   32.7400
    0.1907 	   10.9135 	    4.0000 	   34.0000 	   33.8570
    0.2976 	   11.2043 	    4.0000 	   34.0000 	   35.0201
   -0.0534 	   11.5063 	    4.0000 	   34.0000 	   36.2282
    0.2518 	   11.7998 	    4.0000 	   34.0000 	   37.4022
    0.2060 	   12.1048 	    4.0000 	   34.0000 	   38.6223
    0.2670 	   12.4085 	    4.0000 	   34.0000 	   39.8374
    0.2365 	   12.7198 	    4.0000 	   34.0000 	   41.0825
    0.2060 	   13.0205 	    4.0000 	   34.0000 	   42.2855
    0.3128 	   13.3165 	    4.0000 	   34.0000 	   43.4696
    0.2670 	   13.6208 	    4.0000 	   34.0000 	   44.6867
    0.4349 	   13.9245 	    4.0000 	   34.0000 	   45.9017
    0.2518 	   14.2308 	    4.0000 	   34.0000 	   47.1268
    0.4807 	   14.5355 	    4.0000 	   34.0000 	   48.3459
    0.2976 	   14.8533 	    4.0000 	   34.0000 	   49.6159
    0.1602 	   15.1650 	    4.0000 	   34.0000 	   50.8630
    0.3433 	   15.4750 	    4.0000 	   34.0000 	   52.1031
    0.3586 	   15.7908 	    4.0000 	   34.0000 	   53.3662
    0.4959 	   16.1088 	    4.0000 	   34.0000 	   54.6382
    0.4044 	   16.4198 	    4.0000 	   34.0000 	   55.8823
    0.2213 	   16.7350 	    4.0000 	   34.0000 	   57.1434
    0.4807 	   17.0510 	    4.0000 	   34.0000 	   58.4074
    0.4044 	   17.3653 	    4.0000 	   34.0000 	   59.6645
    0.0534 	   17.6820 	    4.0000 	   35.0000 	    0.9316
    0.3433 	   18.0223 	    4.0000 	   35.0000 	    2.2927
    0.3891 	   18.3460 	    4.0000 	   35.0000 	    3.5877
    0.3281 	   18.6720 	    4.0000 	   35.0000 	    4.8918
    0.3891 	   19.0033 	    4.0000 	   35.0000 	    6.2169
    0.3738 	   19.3345 	    4.0000 	   35.0000 	    7.5410
    0.3128 	   19.6633 	    4.0000 	   35.0000 	    8.8560
    0.2823 	   19.9935 	    4.0000 	   35.0000 	   10.1771
    0.4196 	   20.3315 	    4.0000 	   35.0000 	   11.5292
    0.3281 	   20.6678 	    4.0000 	   35.0000 	   12.8743
    0.3891 	   21.0158 	    4.0000 	   35.0000 	   14.2664
    0.3586 	   21.3645 	    4.0000 	   35.0000 	   15.6614
    0.5112 	   21.7130 	    4.0000 	   35.0000 	   17.0555
    0.3891 	   22.0495 	    4.0000 	   35.0000 	   18.4016
    0.3738 	   22.3838 	    4.0000 	   35.0000 	   19.7387
    0.4349 	   22.7295 	    4.0000 	   35.0000 	   21.1217
    0.3433 	   23.0738 	    4.0000 	   35.0000 	   22.4988
    0.3586 	   23.4300 	    4.0000 	   35.0000 	   23.9229
    0.3433 	   23.7903 	    4.0000 	   35.0000 	   25.3640
    0.3433 	   24.1363 	    4.0000 	   35.0000 	   26.7481
    0.2976 	   24.4853 	    4.0000 	   35.0000 	   28.1441
    0.4501 	   24.8393 	    4.0000 	   35.0000 	   29.5602
    0.3433 	   25.1908 	    4.0000 	   35.0000 	   30.9663
    0.4654 	   25.5505 	    4.0000 	   35.0000 	   32.4054
    0.5264 	   25.9123 	    4.0000 	   35.0000 	   33.8525
    0.3128 	   26.2713 	    4.0000 	   35.0000 	   35.2886
    0.3891 	   26.6318 	    4.0000 	   35.0000 	   36.7306
    0.4654 	   26.9840 	    4.0000 	   35.0000 	   38.1397
    0.3738 	   27.3483 	    4.0000 	   35.0000 	   39.5968
    0.5264 	   27.7133 	    4.0000 	   35.0000 	   41.0569
    0.4196 	   28.0760 	    4.0000 	   35.0000 	   42.5070
    0.4654 	   28.4410 	    4.0000 	   35.0000 	   43.9670
    0.3433 	   28.8213 	    4.0000 	   35.0000 	   45.4881
    0.3738 	   29.1960 	    4.0000 	   35.0000 	   46.9872
    0.4349 	   29.5748 	    4.0000 	   35.0000 	   48.5023
    0.2976 	   29.9515 	    4.0000 	   35.0000 	   50.0094
    0.3738 	   30.3258 	    4.0000 	   35.0000 	   51.5065
    0.3738 	   30.7013 	    4.0000 	   35.0000 	   53.0086
    0.3281 	   31.0793 	    4.0000 	   35.0000 	   54.5207
    0.1602 	   31.4583 	    4.0000 	   35.0000 	   56.0367
    0.4654 	   31.8413 	    4.0000 	   35.0000 	   57.5688
    0.3738 	   32.2243 	    4.0000 	   35.0000 	   59.0999
    0.3738 	   32.6020 	    4.0000 	   36.0000 	    0.6110
    0.2823 	   32.9890 	    4.0000 	   36.0000 	    2.1591
    0.2518 	   33.3670 	    4.0000 	   36.0000 	    3.6712
    0.2670 	   33.7583 	    4.0000 	   36.0000 	    5.2363
    0.5875 	   34.1508 	    4.0000 	   36.0000 	    6.8064
    0.3281 	   34.5510 	    4.0000 	   36.0000 	    8.4074
    0.4196 	   34.9508 	    4.0000 	   36.0000 	   10.0065
    0.1755 	   35.3543 	    4.0000 	   36.0000 	   11.6206
    0.2060 	   35.7523 	    4.0000 	   36.0000 	   13.2127
    0.3128 	   36.1513 	    4.0000 	   36.0000 	   14.8088
    0.2518 	   36.5473 	    4.0000 	   36.0000 	   16.3919
    0.2365 	   36.9450 	    4.0000 	   36.0000 	   17.9830
    0.2823 	   37.3540 	    4.0000 	   36.0000 	   19.6191
    0.3281 	   37.7580 	    4.0000 	   36.0000 	   21.2352
    0.4196 	   38.1648 	    4.0000 	   36.0000 	   22.8623
    0.3281 	   38.5703 	    4.0000 	   36.0000 	   24.4844
    0.2518 	   38.9870 	    4.0000 	   36.0000 	   26.1515
    0.2976 	   39.4010 	    4.0000 	   36.0000 	   27.8076
    0.3128 	   39.8095 	    4.0000 	   36.0000 	   29.4417
    0.3433 	   40.2210 	    4.0000 	   36.0000 	   31.0877
    0.1907 	   40.6395 	    4.0000 	   36.0000 	   32.7618
    0.2823 	   41.0625 	    4.0000 	   36.0000 	   34.4529
    0.3281 	   41.4775 	    4.0000 	   36.0000 	   36.1130
    0.3586 	   41.8978 	    4.0000 	   36.0000 	   37.7941
    0.2060 	   42.3183 	    4.0000 	   36.0000 	   39.4762
    0.2518 	   42.7363 	    4.0000 	   36.0000 	   41.1483
    0.1755 	   43.1650 	    4.0000 	   36.0000 	   42.8634
    0.2670 	   43.5830 	    4.0000 	   36.0000 	   44.5355
    0.3128 	   44.0075 	    4.0000 	   36.0000 	   46.2336
    0.0229 	   44.4433 	    4.0000 	   36.0000 	   47.9767
    0.0992 	   44.8703 	    4.0000 	   36.0000 	   49.6848
    0.2365 	   45.3003 	    4.0000 	   36.0000 	   51.4039
    0.3128 	   45.7243 	    4.0000 	   36.0000 	   53.1000
    0.3586 	   46.1518 	    4.0000 	   36.0000 	   54.8101
    0.2518 	   46.5873 	    4.0000 	   36.0000 	   56.5522
    0.3281 	   47.0170 	    4.0000 	   36.0000 	   58.2713
    0.1755 	   47.4535 	    4.0000 	   37.0000 	    0.0174
    0.2518 	   47.8925 	    4.0000 	   37.0000 	    1.7735
    0.2518 	   48.3333 	    4.0000 	   37.0000 	    3.5366
    0.3891 	   48.7760 	    4.0000 	   37.0000 	    5.3077
   -0.0992 	   49.2245 	    4.0000 	   37.0000 	    7.1018
    0.2213 	   49.6700 	    4.0000 	   37.0000 	    8.8829
    0.2976 	   50.1190 	    4.0000 	   37.0000 	   10.6790
    0.1755 	   50.5670 	    4.0000 	   37.0000 	   12.4711
    0.2365 	   51.0133 	    4.0000 	   37.0000 	   14.2562
    0.2060 	   51.4623 	    4.0000 	   37.0000 	   16.0523
    0.2518 	   51.9183 	    4.0000 	   37.0000 	   17.8764
    0.0076 	   52.3678 	    4.0000 	   37.0000 	   19.6745
    0.1297 	   52.8238 	    4.0000 	   37.0000 	   21.4986
    0.3586 	   53.2708 	    4.0000 	   37.0000 	   23.2867
    0.2365 	   53.7195 	    4.0000 	   37.0000 	   25.0818
    0.2060 	   54.1743 	    4.0000 	   37.0000 	   26.8999
    0.2823 	   54.6353 	    4.0000 	   37.0000 	   28.7440
    0.3128 	   55.1038 	    4.0000 	   37.0000 	   30.6182
    0.3738 	   55.5613 	    4.0000 	   37.0000 	   32.4483
    0.1297 	   56.0240 	    4.0000 	   37.0000 	   34.2994
    0.1297 	   56.4868 	    4.0000 	   37.0000 	   36.1505
    0.2365 	   56.9565 	    4.0000 	   37.0000 	   38.0296
    0.3738 	   57.4235 	    4.0000 	   37.0000 	   39.8977
    0.2823 	   57.8995 	    4.0000 	   37.0000 	   41.8018
    0.2365 	   58.3705 	    4.0000 	   37.0000 	   43.6849
    0.1907 	   58.8405 	    4.0000 	   37.0000 	   45.5650
    0.2823 	   59.3170 	    4.0000 	   37.0000 	   47.4711
    0.2365 	   59.7940 	    4.0000 	   37.0000 	   49.3792
    0.1907 	   60.0383 	    4.0000 	   37.0000 	   50.3563

File: long_3W15L_drag30_spd15.txt
Thayer School of Engineering        Instron 4442 Mechanical Testing System
6/28/2018 4:40:11 AM

  Force (N)	Extension (mm)	Not Used	Not Used	Not Used	     Hour	    Minute	    Second
    0.3128 	    0.2560 	    4.0000 	   40.0000 	   27.1022
    0.4044 	    0.6695 	    4.0000 	   40.0000 	   28.7563
    0.2976 	    0.9875 	    4.0000 	   40.0000 	   30.0284
    0.2976 	    1.2593 	    4.0000 	   40.0000 	   31.1155
    0.0381 	    1.5005 	    4.0000 	   40.0000 	   32.0805
    0.4349 	    1.7355 	    4.0000 	   40.0000 	   33.0206
    0.4044 	    1.9813 	    4.0000 	   40.0000 	   34.0026
    0.2976 	    2.2315 	    4.0000 	   40.0000 	   35.0037
    0.1907 	    2.4815 	    4.0000 	   40.0000 	   36.0038
    0.2365 	    2.7400 	    4.0000 	   40.0000 	   37.0378
    0.3738 	    3.0020 	    4.0000 	   40.0000 	   38.0859
    0.2213 	    3.2673 	    4.0000 	   40.0000 	   39.1469
    0.2213 	    3.5180 	    4.0000 	   40.0000 	   40.1500
    0.3128 	    3.7755 	    4.0000 	   40.0000 	   41.1800
    0.3281 	    4.0285 	    4.0000 	   40.0000 	   42.1921
    0.2670 	    4.2960 	    4.0000 	   40.0000 	   43.2622
    0.2670 	    4.5675 	    4.0000 	   40.0000 	   44.3482
    0.0076 	    4.8243 	    4.0000 	   40.0000 	   45.3753
    0.1297 	    5.0938 	    4.0000 	   40.0000 	   46.4534
    0.3891 	    5.3550 	    4.0000 	   40.0000 	   47.4974
    0.3281 	    5.6128 	    4.0000 	   40.0000 	   48.5295
    0.2670 	    5.8840 	    4.0000 	   40.0000 	   49.6145
    0.3738 	    6.1573 	    4.0000 	   40.0000 	   50.7076
    0.5112 	    6.4283 	    4.0000 	   40.0000 	   51.7907
    0.4501 	    6.7085 	    4.0000 	   40.0000 	   52.9117
    0.3281 	    6.9935 	    4.0000 	   40.0000 	   54.0518
    0.3128 	    7.2770 	    4.0000 	   40.0000 	   55.1859
    0.4196 	    7.5493 	    4.0000 	   40.0000 	   56.2749
    0.4959 	    7.8305 	    4.0000 	   40.0000 	   57.4000
    0.4196 	    8.1130 	    4.0000 	   40.0000 	   58.5300
    0.4349 	    8.4055 	    4.0000 	   40.0000 	   59.7001
    0.3891 	    8.7033 	    4.0000 	   41.0000 	    0.8912
    0.4044 	    9.0063 	    4.0000 	   41.0000 	    2.1032
    0.3281 	    9.3110 	    4.0000 	   41.0000 	    3.3223
    0.3891 	    9.5910 	    4.0000 	   41.0000 	    4.4424
    0.1450 	    9.8843 	    4.0000 	   41.0000 	    5.6154
    0.4044 	   10.1680 	    4.0000 	   41.0000 	    6.7505
    0.3586 	   10.4675 	    4.0000 	   41.0000 	    7.9486
    0.4501 	   10.7618 	    4.0000 	   41.0000 	    9.1246
    0.4501 	   11.0618 	    4.0000 	   41.0000 	   10.3247
    0.3281 	   11.3528 	    4.0000 	   41.0000 	   11.4888
    0.4807 	   11.6610 	    4.0000 	   41.0000 	   12.7219
    0.5112 	   11.9813 	    4.0000 	   41.0000 	   14.0029
    0.5875 	   12.3083 	    4.0000 	   41.0000 	   15.3110
    0.4654 	   12.6290 	    4.0000 	   41.0000 	   16.5941
    0.6790 	   12.9288 	    4.0000 	   41.0000 	   17.7931
    0.4044 	   13.2485 	    4.0000 	   41.0000 	   19.0722
    0.4959 	   13.5563 	    4.0000 	   41.0000 	   20.3033
    0.5417 	   13.8795 	    4.0000 	   41.0000 	   21.5964
    0.4349 	   14.2018 	    4.0000 	   41.0000 	   22.8854
    0.2976 	   14.5355 	    4.0000 	   41.0000 	   24.2205
    0.4349 	   14.8528 	    4.0000 	   41.0000 	   25.4896
    0.6180 	   15.1783 	    4.0000 	   41.0000 	   26.7907
    0.6485 	   15.5028 	    4.0000 	   41.0000 	   28.0887
    0.4501 	   15.8278 	    4.0000 	   41.0000 	   29.3888
    0.6180 	   16.1718 	    4.0000 	   41.0000 	   30.7649
    0.5264 	   16.5083 	    4.0000 	   41.0000 	   32.1110
    0.5112 	   16.8513 	    4.0000 	   41.0000 	   33.4830
    0.2213 	   17.1910 	    4.0000 	   41.0000 	   34.8421
    0.5570 	   17.5273 	    4.0000 	   41.0000 	   36.1872
    0.4807 	   17.8615 	    4.0000 	   41.0000 	   37.5243
    0.2670 	   18.1955 	    4.0000 	   41.0000 	   38.8603
    0.5112 	   18.5375 	    4.0000 	   41.0000 	   40.2284
    0.5722 	   18.8820 	    4.0000 	   41.0000 	   41.6065
    0.5570 	   19.2235 	    4.0000 	   41.0000 	   42.9726
    0.4807 	   19.5710 	    4.0000 	   41.0000 	   44.3617
    0.5875 	   19.9145 	    4.0000 	   41.0000 	   45.7357
    0.4501 	   20.2500 	    4.0000 	   41.0000 	   47.0778
    0.6943 	   20.5938 	    4.0000 	   41.0000 	   48.4529
    0.6180 	   20.9463 	    4.0000 	   41.0000 	   49.8630
    0.4959 	   21.2988 	    4.0000 	   41.0000 	   51.2731
    0.6638 	   21.6475 	    4.0000 	   41.0000 	   52.6681
    0.8164 	   21.9943 	    4.0000 	   41.0000 	   54.0552
    0.5722 	   22.3433 	    4.0000 	   41.0000 	   55.4513
    0.7401 	   22.7025 	    4.0000 	   41.0000 	   56.8884
    0.7553 	   23.0555 	    4.0000 	   41.0000 	   58.3005
    0.4196 	   23.4085 	    4.0000 	   41.0000 	   59.7125
    0.5112 	   23.7705 	    4.0000 	   42.0000 	    1.1596
    0.4196 	   24.1215 	    4.0000 	   42.0000 	    2.5637
    0.6943 	   24.4728 	    4.0000 	   42.0000 	    3.9688
    0.6638 	   24.8253 	    4.0000 	   42.0000 	    5.3789
    0.7248 	   25.1975 	    4.0000 	   42.0000 	    6.8680
    0.7401 	   25.5598 	    4.0000 	   42.0000 	    8.3170
    0.7401 	   25.9195 	    4.0000 	   42.0000 	    9.7561
    0.8621 	   26.2793 	    4.0000 	   42.0000 	   11.1952
    0.7401 	   26.6455 	    4.0000 	   42.0000 	   12.6603
    0.8316 	   27.0250 	    4.0000 	   42.0000 	   14.1784
    0.7706 	   27.3970 	    4.0000 	   42.0000 	   15.6665
    0.7401 	   27.7648 	    4.0000 	   42.0000 	   17.1375
    0.7553 	   28.1313 	    4.0000 	   42.0000 	   18.6026
    0.7858 	   28.4973 	    4.0000 	   42.0000 	   20.0667
    0.8621 	   28.8655 	    4.0000 	   42.0000 	   21.5398
    0.7858 	   29.2360 	    4.0000 	   42.0000 	   23.0219
    0.4349 	   29.6060 	    4.0000 	   42.0000 	   24.5020
    0.7401 	   29.9713 	    4.0000 	   42.0000 	   25.9630
    0.8774 	   30.3520 	    4.0000 	   42.0000 	   27.4861
    0.9079 	   30.7250 	    4.0000 	   42.0000 	   28.9782
    0.8774 	   31.0920 	    4.0000 	   42.0000 	   30.4463
    0.5722 	   31.4700 	    4.0000 	   42.0000 	   31.9584
    0.4501 	   31.8450 	    4.0000 	   42.0000 	   33.4585
    0.7553 	   32.2283 	    4.0000 	   42.0000 	   34.9916
    0.7095 	   32.6053 	    4.0000 	   42.0000 	   36.4986
    0.6790 	   32.9923 	    4.0000 	   42.0000 	   38.0467
    0.7553 	   33.3865 	    4.0000 	   42.0000 	   39.6238
    0.6180 	   33.7733 	    4.0000 	   42.0000 	   41.1709
    0.7553 	   34.1600 	    4.0000 	   42.0000 	   42.7180
    0.7248 	   34.5483 	    4.0000 	   42.0000 	   44.2711
    0.6180 	   34.9403 	    4.0000 	   42.0000 	   45.8392
    0.6180 	   35.3325 	    4.0000 	   42.0000 	   47.4083
    0.2976 	   35.7260 	    4.0000 	   42.0000 	   48.9824
    0.5875 	   36.1273 	    4.0000 	   42.0000 	   50.5875
    0.7401 	   36.5238 	    4.0000 	   42.0000 	   52.1735
    0.6485 	   36.9318 	    4.0000 	   42.0000 	   53.8046
    0.5417 	   37.3385 	    4.0000 	   42.0000 	   55.4317
    0.6943 	   37.7468 	    4.0000 	   42.0000 	   57.0648
    0.5570 	   38.1405 	    4.0000 	   42.0000 	   58.6399
    0.4807 	   38.5452 	    4.0000 	   43.0000 	    0.2590
    0.5417 	   38.9610 	    4.0000 	   43.0000 	    1.9221
    0.6332 	   39.3703 	    4.0000 	   43.0000 	    3.5592
    0.4349 	   39.7803 	    4.0000 	   43.0000 	    5.1993
    0.4501 	   40.1870 	    4.0000 	   43.0000 	    6.8264
    0.6638 	   40.6030 	    4.0000 	   43.0000 	    8.4905
    0.4196 	   41.0143 	    4.0000 	   43.0000 	   10.1356
    0.4654 	   41.4368 	    4.0000 	   43.0000 	   11.8247
    0.4959 	   41.8595 	    4.0000 	   43.0000 	   13.5158
    0.5417 	   42.2790 	    4.0000 	   43.0000 	   15.1939
    0.4196 	   42.6998 	    4.0000 	   43.0000 	   16.8770
    0.3281 	   43.1205 	    4.0000 	   43.0000 	   18.5601
    0.4196 	   43.5460 	    4.0000 	   43.0000 	   20.2621
    0.4654 	   43.9683 	    4.0000 	   43.0000 	   21.9512
    0.3433 	   44.3855 	    4.0000 	   43.0000 	   23.6203
    0.5417 	   44.8053 	    4.0000 	   43.0000 	   25.2994
    0.0992 	   45.2345 	    4.0000 	   43.0000 	   27.0165
    0.4196 	   45.6645 	    4.0000 	   43.0000 	   28.7356
    0.2060 	   46.0973 	    4.0000 	   43.0000 	   30.4667
    0.6180 	   46.5350 	    4.0000 	   43.0000 	   32.2178
    0.1297 	   46.9695 	    4.0000 	   43.0000 	   33.9559
    0.4196 	   47.4085 	    4.0000 	   43.0000 	   35.7120
    0.4196 	   47.8425 	    4.0000 	   43.0000 	   37.4481
    0.4959 	   48.2795 	    4.0000 	   43.0000 	   39.1962
    0.3586 	   48.7163 	    4.0000 	   43.0000 	   40.9433
    0.3433 	   49.1583 	    4.0000 	   43.0000 	   42.7114
    0.4959 	   49.6035 	    4.0000 	   43.0000 	   44.4925
    0.3738 	   50.0543 	    4.0000 	   43.0000 	   46.2946
    0.4044 	   50.5068 	    4.0000 	   43.0000 	   48.1047
    0.2976 	   50.9668 	    4.0000 	   43.0000 	   49.9448
    0.2823 	   51.4333 	    4.0000 	   43.0000 	   51.8110
    0.2976 	   51.8943 	    4.0000 	   43.0000 	   53.6551
    0.2213 	   52.3363 	    4.0000 	   43.0000 	   55.4232
    0.2213 	   52.7813 	    4.0000 	   43.0000 	   57.2033
    0.4501 	   53.2325 	    4.0000 	   43.0000 	   59.0084
    0.2823 	   53.6908 	    4.0000 	   44.0000 	    0.8415
    0.1297 	   54.1473 	    4.0000 	   44.0000 	    2.6676
    0.3433 	   54.6120 	    4.0000 	   44.0000 	    4.5257
    0.2365 	   55.0723 	    4.0000 	   44.0000 	    6.3668
    0.0534 	   55.5448 	    4.0000 	   44.0000 	    8.2569
    0.2823 	   56.0055 	    4.0000 	   44.0000 	   10.1000
    0.2670 	   56.4673 	    4.0000 	   44.0000 	   11.9471
    0.3128 	   56.9295 	    4.0000 	   44.0000 	   13.7962
    0.2213 	   57.4018 	    4.0000 	   44.0000 	   15.6853
    0.3128 	   57.8743 	    4.0000 	   44.0000 	   17.5754
    0.2060 	   58.3443 	    4.0000 	   44.0000 	   19.4555
    0.0229 	   58.8133 	    4.0000 	   44.0000 	   21.3306
    0.4044 	   59.2855 	    4.0000 	   44.0000 	   23.2197
    0.2976 	   59.7560 	    4.0000 	   44.0000 	   25.1019
    0.2670 	   60.2220 	    4.0000 	   44.0000 	   26.9660
    0.1144 	   60.6023 	    4.0000 	   44.0000 	   28.4871