Folder: Smart-Fabrics/instron (part 11)

File: short_fabric_1W15L_drag30_spd15.txt
Thayer School of Engineering        Instron 4442 Mechanical Testing System
6/28/2018 4:26:21 AM

  Force (N)	Extension (mm)	Not Used	Not Used	Not Used	     Hour	    Minute	    Second
    0.0534 	    0.2558 	    4.0000 	   26.0000 	   52.3286
    0.1450 	    0.6185 	    4.0000 	   26.0000 	   53.7797
    0.0076 	    0.9418 	    4.0000 	   26.0000 	   55.0728
    0.2213 	    1.2120 	    4.0000 	   26.0000 	   56.1539
    0.1907 	    1.4653 	    4.0000 	   26.0000 	   57.1669
    0.2213 	    1.7113 	    4.0000 	   26.0000 	   58.1510
    0.0687 	    1.9560 	    4.0000 	   26.0000 	   59.1300
    0.2976 	    2.1995 	    4.0000 	   27.0000 	    0.1041
    0.0381 	    2.4438 	    4.0000 	   27.0000 	    1.0811
   -0.2365 	    2.6888 	    4.0000 	   27.0000 	    2.0612
    0.1602 	    2.9410 	    4.0000 	   27.0000 	    3.0703
    0.0687 	    3.1898 	    4.0000 	   27.0000 	    4.0643
    0.2670 	    3.4375 	    4.0000 	   27.0000 	    5.0554
    0.0992 	    3.6908 	    4.0000 	   27.0000 	    6.0684
    0.3128 	    3.9445 	    4.0000 	   27.0000 	    7.0835
    0.1297 	    4.2035 	    4.0000 	   27.0000 	    8.1195
    0.2060 	    4.4620 	    4.0000 	   27.0000 	    9.1536
    0.2518 	    4.7183 	    4.0000 	   27.0000 	   10.1787
    0.2365 	    4.9853 	    4.0000 	   27.0000 	   11.2467
    0.0839 	    5.2423 	    4.0000 	   27.0000 	   12.2748
    0.3891 	    5.5000 	    4.0000 	   27.0000 	   13.3058
    0.1450 	    5.7643 	    4.0000 	   27.0000 	   14.3629
    0.1755 	    6.0213 	    4.0000 	   27.0000 	   15.3910
    0.1144 	    6.2925 	    4.0000 	   27.0000 	   16.4760
    0.1907 	    6.5590 	    4.0000 	   27.0000 	   17.5411
   -0.1602 	    6.8328 	    4.0000 	   27.0000 	   18.6371
    0.3433 	    7.1073 	    4.0000 	   27.0000 	   19.7352
    0.2518 	    7.3795 	    4.0000 	   27.0000 	   20.8243
    0.1907 	    7.6590 	    4.0000 	   27.0000 	   21.9413
    0.2213 	    7.9320 	    4.0000 	   27.0000 	   23.0334
    0.2976 	    8.2133 	    4.0000 	   27.0000 	   24.1585
    0.3281 	    8.4933 	    4.0000 	   27.0000 	   25.2785
    0.1907 	    8.7748 	    4.0000 	   27.0000 	   26.4046
    0.3433 	    9.0563 	    4.0000 	   27.0000 	   27.5307
    0.4501 	    9.3398 	    4.0000 	   27.0000 	   28.6647
    0.2518 	    9.6340 	    4.0000 	   27.0000 	   29.8418
    0.2060 	    9.9165 	    4.0000 	   27.0000 	   30.9719
    0.2365 	   10.1990 	    4.0000 	   27.0000 	   32.1019
    0.2670 	   10.4755 	    4.0000 	   27.0000 	   33.2080
    0.2213 	   10.7535 	    4.0000 	   27.0000 	   34.3200
    0.2060 	   11.0518 	    4.0000 	   27.0000 	   35.5131
    0.3891 	   11.3550 	    4.0000 	   27.0000 	   36.7262
    0.2823 	   11.6450 	    4.0000 	   27.0000 	   37.8862
    0.2060 	   11.9480 	    4.0000 	   27.0000 	   39.0973
    0.2976 	   12.2473 	    4.0000 	   27.0000 	   40.2944
    0.3433 	   12.5453 	    4.0000 	   27.0000 	   41.4865
    0.1450 	   12.8470 	    4.0000 	   27.0000 	   42.6935
    0.3433 	   13.1540 	    4.0000 	   27.0000 	   43.9216
    0.3281 	   13.4745 	    4.0000 	   27.0000 	   45.2037
    0.3281 	   13.7960 	    4.0000 	   27.0000 	   46.4897
    0.1602 	   14.1090 	    4.0000 	   27.0000 	   47.7418
    0.2976 	   14.4315 	    4.0000 	   27.0000 	   49.0319
    0.3891 	   14.7573 	    4.0000 	   27.0000 	   50.3350
    0.4959 	   15.0740 	    4.0000 	   27.0000 	   51.6020
    0.5417 	   15.3918 	    4.0000 	   27.0000 	   52.8731
    0.2365 	   15.7108 	    4.0000 	   27.0000 	   54.1492
    0.3891 	   16.0285 	    4.0000 	   27.0000 	   55.4202
    0.3433 	   16.3472 	    4.0000 	   27.0000 	   56.6943
    0.4349 	   16.6658 	    4.0000 	   27.0000 	   57.9684
    0.3891 	   16.9900 	    4.0000 	   27.0000 	   59.2655
    0.3128 	   17.3068 	    4.0000 	   28.0000 	    0.5325
    0.5112 	   17.6303 	    4.0000 	   28.0000 	    1.8266
    0.4959 	   17.9450 	    4.0000 	   28.0000 	    3.0857
    0.6027 	   18.2663 	    4.0000 	   28.0000 	    4.3708
    0.4196 	   18.5935 	    4.0000 	   28.0000 	    5.6798
    0.3433 	   18.9240 	    4.0000 	   28.0000 	    7.0019
    0.4959 	   19.2505 	    4.0000 	   28.0000 	    8.3080
    0.4349 	   19.5803 	    4.0000 	   28.0000 	    9.6271
    0.3738 	   19.9125 	    4.0000 	   28.0000 	   10.9561
    0.3738 	   20.2483 	    4.0000 	   28.0000 	   12.2992
    0.4349 	   20.5828 	    4.0000 	   28.0000 	   13.6373
    0.5264 	   20.9213 	    4.0000 	   28.0000 	   14.9904
    0.4349 	   21.2548 	    4.0000 	   28.0000 	   16.3234
    0.4807 	   21.5920 	    4.0000 	   28.0000 	   17.6735
    0.5570 	   21.9393 	    4.0000 	   28.0000 	   19.0626
    0.3738 	   22.2848 	    4.0000 	   28.0000 	   20.4447
    0.4196 	   22.6325 	    4.0000 	   28.0000 	   21.8358
    0.5417 	   22.9748 	    4.0000 	   28.0000 	   23.2048
    0.4959 	   23.3255 	    4.0000 	   28.0000 	   24.6079
    0.5417 	   23.6733 	    4.0000 	   28.0000 	   25.9990
    0.6027 	   24.0283 	    4.0000 	   28.0000 	   27.4191
    0.5417 	   24.3803 	    4.0000 	   28.0000 	   28.8272
    0.6180 	   24.7400 	    4.0000 	   28.0000 	   30.2662
    0.6027 	   25.1020 	    4.0000 	   28.0000 	   31.7133
    0.5417 	   25.4528 	    4.0000 	   28.0000 	   33.1164
    0.4654 	   25.8138 	    4.0000 	   28.0000 	   34.5605
    0.4959 	   26.1778 	    4.0000 	   28.0000 	   36.0166
    0.6180 	   26.5420 	    4.0000 	   28.0000 	   37.4737
    0.5722 	   26.9013 	    4.0000 	   28.0000 	   38.9107
    0.5264 	   27.2570 	    4.0000 	   28.0000 	   40.3338
    0.6790 	   27.6185 	    4.0000 	   28.0000 	   41.7799
    0.6332 	   27.9828 	    4.0000 	   28.0000 	   43.2370
    0.5875 	   28.3435 	    4.0000 	   28.0000 	   44.6801
    0.7553 	   28.7053 	    4.0000 	   28.0000 	   46.1272
    0.5417 	   29.0685 	    4.0000 	   28.0000 	   47.5802
    0.6790 	   29.4383 	    4.0000 	   28.0000 	   49.0583
    0.6485 	   29.8065 	    4.0000 	   28.0000 	   50.5314
    0.5264 	   30.1813 	    4.0000 	   28.0000 	   52.0305
    0.6332 	   30.5608 	    4.0000 	   28.0000 	   53.5486
    0.5570 	   30.9370 	    4.0000 	   28.0000 	   55.0537
    0.5875 	   31.3088 	    4.0000 	   28.0000 	   56.5407
    0.6180 	   31.6835 	    4.0000 	   28.0000 	   58.0398
    0.6027 	   32.0595 	    4.0000 	   28.0000 	   59.5439
    0.5264 	   32.4410 	    4.0000 	   29.0000 	    1.0700
    0.4807 	   32.8232 	    4.0000 	   29.0000 	    2.5991
    0.2365 	   33.1965 	    4.0000 	   29.0000 	    4.0922
    0.3433 	   33.5793 	    4.0000 	   29.0000 	    5.6233
    0.6485 	   33.9588 	    4.0000 	   29.0000 	    7.1404
    0.3281 	   34.3378 	    4.0000 	   29.0000 	    8.6564
    0.5875 	   34.7345 	    4.0000 	   29.0000 	   10.2435
    0.4349 	   35.1283 	    4.0000 	   29.0000 	   11.8186
    0.5112 	   35.5248 	    4.0000 	   29.0000 	   13.4047
    0.5417 	   35.9195 	    4.0000 	   29.0000 	   14.9838
    0.3891 	   36.3120 	    4.0000 	   29.0000 	   16.5539
    0.5112 	   36.7048 	    4.0000 	   29.0000 	   18.1250
    0.4501 	   37.1020 	    4.0000 	   29.0000 	   19.7141
    0.0992 	   37.5035 	    4.0000 	   29.0000 	   21.3202
    0.4196 	   37.8938 	    4.0000 	   29.0000 	   22.8813
    0.3738 	   38.2885 	    4.0000 	   29.0000 	   24.4593
    0.3891 	   38.6783 	    4.0000 	   29.0000 	   26.0184
    0.2976 	   39.0770 	    4.0000 	   29.0000 	   27.6135
    0.3891 	   39.4785 	    4.0000 	   29.0000 	   29.2196
    0.5417 	   39.8788 	    4.0000 	   29.0000 	   30.8207
    0.4044 	   40.2888 	    4.0000 	   29.0000 	   32.4608
    0.4501 	   40.6940 	    4.0000 	   29.0000 	   34.0819
    0.3586 	   41.0975 	    4.0000 	   29.0000 	   35.6960
    0.4196 	   41.5140 	    4.0000 	   29.0000 	   37.3621
    0.3586 	   41.9235 	    4.0000 	   29.0000 	   39.0002
    0.3433 	   42.3430 	    4.0000 	   29.0000 	   40.6783
    0.3128 	   42.7615 	    4.0000 	   29.0000 	   42.3514
    0.5417 	   43.1823 	    4.0000 	   29.0000 	   44.0345
    0.2823 	   43.6023 	    4.0000 	   29.0000 	   45.7146
    0.0687 	   44.0165 	    4.0000 	   29.0000 	   47.3717
    0.4196 	   44.4395 	    4.0000 	   29.0000 	   49.0638
    0.4807 	   44.8663 	    4.0000 	   29.0000 	   50.7708
    0.4044 	   45.2935 	    4.0000 	   29.0000 	   52.4799
    0.4501 	   45.7213 	    4.0000 	   29.0000 	   54.1910
    0.2976 	   46.1438 	    4.0000 	   29.0000 	   55.8811
    0.2060 	   46.5698 	    4.0000 	   29.0000 	   57.5852
    0.1450 	   47.0040 	    4.0000 	   29.0000 	   59.3213
    0.2518 	   47.4360 	    4.0000 	   30.0000 	    1.0494
    0.2823 	   47.8715 	    4.0000 	   30.0000 	    2.7915
    0.3433 	   48.3033 	    4.0000 	   30.0000 	    4.5186
    0.3738 	   48.7488 	    4.0000 	   30.0000 	    6.3007
    0.1450 	   49.1913 	    4.0000 	   30.0000 	    8.0708
    0.1297 	   49.6285 	    4.0000 	   30.0000 	    9.8199
    0.2365 	   50.0575 	    4.0000 	   30.0000 	   11.5360
    0.3586 	   50.4995 	    4.0000 	   30.0000 	   13.3041
    0.2060 	   50.9405 	    4.0000 	   30.0000 	   15.0682
    0.1755 	   51.3835 	    4.0000 	   30.0000 	   16.8393
    0.3586 	   51.8208 	    4.0000 	   30.0000 	   18.5884
    0.3128 	   52.2633 	    4.0000 	   30.0000 	   20.3585
    0.2518 	   52.7095 	    4.0000 	   30.0000 	   22.1436
    0.1755 	   53.1583 	    4.0000 	   30.0000 	   23.9387
    0.1755 	   53.6085 	    4.0000 	   30.0000 	   25.7398
    0.3433 	   54.0598 	    4.0000 	   30.0000 	   27.5450
   -0.1297 	   54.5168 	    4.0000 	   30.0000 	   29.3731
    0.1755 	   54.9710 	    4.0000 	   30.0000 	   31.1902
    0.2213 	   55.4293 	    4.0000 	   30.0000 	   33.0233
    0.1144 	   55.8833 	    4.0000 	   30.0000 	   34.8384
    0.0839 	   56.3395 	    4.0000 	   30.0000 	   36.6635
    0.3738 	   56.7958 	    4.0000 	   30.0000 	   38.4886
    0.3281 	   57.2633 	    4.0000 	   30.0000 	   40.3587
    0.1602 	   57.7213 	    4.0000 	   30.0000 	   42.1908
    0.0992 	   58.1865 	    4.0000 	   30.0000 	   44.0519
    0.1297 	   58.6530 	    4.0000 	   30.0000 	   45.9180
    0.1297 	   59.1135 	    4.0000 	   30.0000 	   47.7601
    0.2976 	   59.5808 	    4.0000 	   30.0000 	   49.6292
    0.0687 	   60.0510 	    4.0000 	   30.0000 	   51.5093
    0.0839 	   60.4158 	    4.0000 	   30.0000 	   52.9684