Folder: Smart-Fabrics/instron (part 6)

File: 10_grey_3W15L_drag40_spd30.txt
Thayer School of Engineering        Instron 4442 Mechanical Testing System
6/28/2018 1:15:04 AM

  Force (N)	Extension (mm)	Not Used	Not Used	Not Used	     Hour	    Minute	    Second
    0.1144 	    0.5115 	    1.0000 	   15.0000 	   15.6221
   -0.0381 	    1.3595 	    1.0000 	   15.0000 	   17.3182
    0.2060 	    2.0455 	    1.0000 	   15.0000 	   18.6902
    0.1602 	    2.5910 	    1.0000 	   15.0000 	   19.7813
    0.2823 	    3.1140 	    1.0000 	   15.0000 	   20.8274
    0.2976 	    3.6300 	    1.0000 	   15.0000 	   21.8594
    0.0839 	    4.1565 	    1.0000 	   15.0000 	   22.9125
    0.1602 	    4.6685 	    1.0000 	   15.0000 	   23.9365
    0.2060 	    5.1940 	    1.0000 	   15.0000 	   24.9876
    0.1297 	    5.7430 	    1.0000 	   15.0000 	   26.0857
    0.0534 	    6.2565 	    1.0000 	   15.0000 	   27.1127
    0.1907 	    6.7955 	    1.0000 	   15.0000 	   28.1888
    0.1907 	    7.3535 	    1.0000 	   15.0000 	   29.3059
    0.1144 	    7.8970 	    1.0000 	   15.0000 	   30.3929
    0.2976 	    8.4655 	    1.0000 	   15.0000 	   31.5300
    0.2823 	    9.0135 	    1.0000 	   15.0000 	   32.6260
    0.5264 	    9.5920 	    1.0000 	   15.0000 	   33.7831
    0.7706 	   10.1750 	    1.0000 	   15.0000 	   34.9492
    0.7706 	   10.7450 	    1.0000 	   15.0000 	   36.0892
    0.8927 	   11.3085 	    1.0000 	   15.0000 	   37.2163
    1.0758 	   11.8780 	    1.0000 	   15.0000 	   38.3554
    1.2131 	   12.4395 	    1.0000 	   15.0000 	   39.4784
    1.3046 	   13.0195 	    1.0000 	   15.0000 	   40.6385
    1.4572 	   13.6065 	    1.0000 	   15.0000 	   41.8126
    1.3352 	   14.2090 	    1.0000 	   15.0000 	   43.0176
    1.6556 	   14.8185 	    1.0000 	   15.0000 	   44.2367
    1.7929 	   15.4030 	    1.0000 	   15.0000 	   45.4048
    1.9760 	   15.9945 	    1.0000 	   15.0000 	   46.5878
    2.0066 	   16.5925 	    1.0000 	   15.0000 	   47.7839
    2.0371 	   17.1875 	    1.0000 	   15.0000 	   48.9740
    2.1592 	   17.7775 	    1.0000 	   15.0000 	   50.1540
    2.2354 	   18.3870 	    1.0000 	   15.0000 	   51.3731
    2.4338 	   18.9865 	    1.0000 	   15.0000 	   52.5722
    2.3423 	   19.5930 	    1.0000 	   15.0000 	   53.7853
    2.2812 	   20.2025 	    1.0000 	   15.0000 	   55.0043
    2.7848 	   20.8150 	    1.0000 	   15.0000 	   56.2294
    2.3728 	   21.4255 	    1.0000 	   15.0000 	   57.4505
    2.9374 	   22.0435 	    1.0000 	   15.0000 	   58.6865
    2.9831 	   22.6480 	    1.0000 	   15.0000 	   59.8956
    3.0137 	   23.2700 	    1.0000 	   16.0000 	    1.1397
    3.2273 	   23.9005 	    1.0000 	   16.0000 	    2.3997
    3.2120 	   24.5240 	    1.0000 	   16.0000 	    3.6468
    3.5019 	   25.1185 	    1.0000 	   16.0000 	    4.8359
    3.4104 	   25.7445 	    1.0000 	   16.0000 	    6.0880
    3.5935 	   26.3445 	    1.0000 	   16.0000 	    7.2880
    3.6393 	   26.9145 	    1.0000 	   16.0000 	    8.4281
    3.6088 	   27.5210 	    1.0000 	   16.0000 	    9.6412
    3.8529 	   28.1430 	    1.0000 	   16.0000 	   10.8852
    3.8834 	   28.7765 	    1.0000 	   16.0000 	   12.1523
    4.0818 	   29.4015 	    1.0000 	   16.0000 	   13.4024
    4.1276 	   30.0250 	    1.0000 	   16.0000 	   14.6494
    4.3565 	   30.6395 	    1.0000 	   16.0000 	   15.8785
    4.2649 	   31.2760 	    1.0000 	   16.0000 	   17.1516
    4.5090 	   31.8865 	    1.0000 	   16.0000 	   18.3727
    4.7532 	   32.5025 	    1.0000 	   16.0000 	   19.6047
    4.7074 	   33.1605 	    1.0000 	   16.0000 	   20.9198
    4.7990 	   33.8175 	    1.0000 	   16.0000 	   22.2339
    4.7837 	   34.4510 	    1.0000 	   16.0000 	   23.5009
    5.1957 	   35.0920 	    1.0000 	   16.0000 	   24.7830
    5.1194 	   35.7420 	    1.0000 	   16.0000 	   26.0831
    5.2415 	   36.4005 	    1.0000 	   16.0000 	   27.4002
    5.3941 	   37.0700 	    1.0000 	   16.0000 	   28.7393
    5.8976 	   37.7190 	    1.0000 	   16.0000 	   30.0373
    5.8824 	   38.3935 	    1.0000 	   16.0000 	   31.3864
    5.9281 	   39.0420 	    1.0000 	   16.0000 	   32.6835
    6.0655 	   39.6995 	    1.0000 	   16.0000 	   33.9986
    5.8366 	   40.3445 	    1.0000 	   16.0000 	   35.2886
    6.1723 	   41.0085 	    1.0000 	   16.0000 	   36.6167
    6.0044 	   41.6245 	    1.0000 	   16.0000 	   37.8478
    5.8366 	   42.2565 	    1.0000 	   16.0000 	   39.1118
    5.9281 	   42.9115 	    1.0000 	   16.0000 	   40.4219
    5.8976 	   43.5495 	    1.0000 	   16.0000 	   41.6980
    5.8671 	   44.2140 	    1.0000 	   16.0000 	   43.0271
    5.7908 	   44.8850 	    1.0000 	   16.0000 	   44.3691
    5.9892 	   45.5470 	    1.0000 	   16.0000 	   45.6932
    5.5772 	   46.1735 	    1.0000 	   16.0000 	   46.9463
    5.7450 	   46.8295 	    1.0000 	   16.0000 	   48.2584
    5.6840 	   47.5190 	    1.0000 	   16.0000 	   49.6374
    5.5772 	   48.2275 	    1.0000 	   16.0000 	   51.0545
    5.7908 	   48.9355 	    1.0000 	   16.0000 	   52.4706
    5.7145 	   49.6025 	    1.0000 	   16.0000 	   53.8047
    5.6229 	   50.2625 	    1.0000 	   16.0000 	   55.1238
    5.7298 	   50.8985 	    1.0000 	   16.0000 	   56.3958
    5.6077 	   51.5425 	    1.0000 	   16.0000 	   57.6839
    5.7603 	   52.2335 	    1.0000 	   16.0000 	   59.0660
    5.5924 	   52.9355 	    1.0000 	   17.0000 	    0.4701
    5.5924 	   53.6345 	    1.0000 	   17.0000 	    1.8681
    5.5467 	   54.3400 	    1.0000 	   17.0000 	    3.2792
    5.5314 	   55.0210 	    1.0000 	   17.0000 	    4.6413
    5.5314 	   55.7425 	    1.0000 	   17.0000 	    6.0844
    5.6382 	   56.4185 	    1.0000 	   17.0000 	    7.4365
    5.4551 	   57.0970 	    1.0000 	   17.0000 	    8.7935
    5.5314 	   57.7795 	    1.0000 	   17.0000 	   10.1586
    5.5009 	   58.4480 	    1.0000 	   17.0000 	   11.4957
    5.6229 	   59.1325 	    1.0000 	   17.0000 	   12.8638
    5.5467 	   59.8390 	    1.0000 	   17.0000 	   14.2769
    5.6687 	   60.5720 	    1.0000 	   17.0000 	   15.7429
    5.4246 	   61.3110 	    1.0000 	   17.0000 	   17.2210
    5.4704 	   62.0485 	    1.0000 	   17.0000 	   18.6961
    5.5467 	   62.7850 	    1.0000 	   17.0000 	   20.1692
    5.4246 	   63.5315 	    1.0000 	   17.0000 	   21.6623
    5.4551 	   64.2815 	    1.0000 	   17.0000 	   23.1624
    5.5314 	   64.9840 	    1.0000 	   17.0000 	   24.5674
    5.4246 	   65.6875 	    1.0000 	   17.0000 	   25.9745
    5.5009 	   66.4175 	    1.0000 	   17.0000 	   27.4346
    5.4246 	   67.1300 	    1.0000 	   17.0000 	   28.8597
    5.4551 	   67.8425 	    1.0000 	   17.0000 	   30.2838
    5.4551 	   68.5980 	    1.0000 	   17.0000 	   31.7949
    5.5619 	   69.3430 	    1.0000 	   17.0000 	   33.2849
    5.5772 	   70.0800 	    1.0000 	   17.0000 	   34.7590
    5.5467 	   70.8590 	    1.0000 	   17.0000 	   36.3171
    5.4551 	   71.5700 	    1.0000 	   17.0000 	   37.7392
    5.2415 	   72.2795 	    1.0000 	   17.0000 	   39.1583
    4.7837 	   72.9895 	    1.0000 	   17.0000 	   40.5784
    4.5548 	   73.7215 	    1.0000 	   17.0000 	   42.0424
    4.1581 	   74.4485 	    1.0000 	   17.0000 	   43.4965
    4.0665 	   75.1575 	    1.0000 	   17.0000 	   44.9146
    4.0360 	   75.8705 	    1.0000 	   17.0000 	   46.3407
    3.7156 	   76.5920 	    1.0000 	   17.0000 	   47.7828
    3.5019 	   77.3165 	    1.0000 	   17.0000 	   49.2319
    3.1662 	   78.0780 	    1.0000 	   17.0000 	   50.7549
    3.0289 	   78.8265 	    1.0000 	   17.0000 	   52.2520
    2.8153 	   79.5795 	    1.0000 	   17.0000 	   53.7581
    2.7390 	   80.3570 	    1.0000 	   17.0000 	   55.3132
    2.8153 	   81.1005 	    1.0000 	   17.0000 	   56.8003
    2.4491 	   81.8530 	    1.0000 	   17.0000 	   58.3054
    2.6780 	   82.6175 	    1.0000 	   17.0000 	   59.8345
    2.4796 	   83.3845 	    1.0000 	   18.0000 	    1.3685
    2.3880 	   84.1450 	    1.0000 	   18.0000 	    2.8896
    2.2660 	   84.8970 	    1.0000 	   18.0000 	    4.3937
    2.3117 	   85.6585 	    1.0000 	   18.0000 	    5.9158
    1.9760 	   86.4195 	    1.0000 	   18.0000 	    7.4379
    1.9760 	   87.1925 	    1.0000 	   18.0000 	    8.9840
    1.8235 	   87.9715 	    1.0000 	   18.0000 	   10.5421
    1.8845 	   88.7690 	    1.0000 	   18.0000 	   12.1372
    1.7014 	   89.5555 	    1.0000 	   18.0000 	   13.7103
    1.6556 	   90.3530 	    1.0000 	   18.0000 	   15.3053
    1.2436 	   91.1480 	    1.0000 	   18.0000 	   16.8954
    1.4115 	   91.9490 	    1.0000 	   18.0000 	   18.4975
    0.9384 	   92.7505 	    1.0000 	   18.0000 	   20.1006
    1.3199 	   93.5560 	    1.0000 	   18.0000 	   21.7117
    1.0758 	   94.3505 	    1.0000 	   18.0000 	   23.2998
    0.8316 	   95.1430 	    1.0000 	   18.0000 	   24.8849
    0.6332 	   95.9485 	    1.0000 	   18.0000 	   26.4960
    0.6180 	   96.7415 	    1.0000 	   18.0000 	   28.0821
    0.4044 	   97.5380 	    1.0000 	   18.0000 	   29.6752
    0.3281 	   98.3595 	    1.0000 	   18.0000 	   31.3183
    0.2670 	   99.1820 	    1.0000 	   18.0000 	   32.9634
    0.0992 	  100.0185 	    1.0000 	   18.0000 	   34.6365
    0.1907 	  100.8415 	    1.0000 	   18.0000 	   36.2825
    0.1297 	  101.6670 	    1.0000 	   18.0000 	   37.9336
    0.0687 	  102.4895 	    1.0000 	   18.0000 	   39.5777
    0.1602 	  103.3205 	    1.0000 	   18.0000 	   41.2398
    0.1450 	  104.1750 	    1.0000 	   18.0000 	   42.9489
    0.0229 	  105.0010 	    1.0000 	   18.0000 	   44.6010
    0.1297 	  105.8250 	    1.0000 	   18.0000 	   46.2491
    0.1450 	  106.6650 	    1.0000 	   18.0000 	   47.9292
    0.1297 	  107.5050 	    1.0000 	   18.0000 	   49.6093
    0.1602 	  108.3455 	    1.0000 	   18.0000 	   51.2904
   -0.1907 	  109.1960 	    1.0000 	   18.0000 	   52.9915
    0.1297 	  110.0445 	    1.0000 	   18.0000 	   54.6886
    0.2213 	  110.9165 	    1.0000 	   18.0000 	   56.4327
    0.1450 	  111.7665 	    1.0000 	   18.0000 	   58.1318
   -0.0076 	  112.6120 	    1.0000 	   18.0000 	   59.8229
    0.0076 	  113.4635 	    1.0000 	   19.0000 	    1.5260
   -0.0687 	  114.3215 	    1.0000 	   19.0000 	    3.2421
   -0.0687 	  115.1830 	    1.0000 	   19.0000 	    4.9652
    0.0839 	  116.0520 	    1.0000 	   19.0000 	    6.7033
    0.1450 	  116.2065 	    1.0000 	   19.0000 	    7.0123

File: blue_3cmW15cmL_drag40_sep15.txt
Thayer School of Engineering        Instron 4442 Mechanical Testing System
6/27/2018 10:52:43 PM

  Force (N)	Extension (mm)	Not Used	Not Used	Not Used	     Hour	    Minute	    Second
   -0.0534 	    0.2563 	   22.0000 	   53.0000 	   54.0790
    0.0076 	    0.8545 	   22.0000 	   53.0000 	   56.4721
   -0.0992 	    1.2725 	   22.0000 	   53.0000 	   58.1442
   -0.1602 	    1.6663 	   22.0000 	   53.0000 	   59.7193
    0.1755 	    2.0610 	   22.0000 	   54.0000 	    1.2984
    0.2670 	    2.4508 	   22.0000 	   54.0000 	    2.8565
    0.1450 	    2.8455 	   22.0000 	   54.0000 	    4.4355
    0.4501 	    3.2463 	   22.0000 	   54.0000 	    6.0386
    0.5722 	    3.6503 	   22.0000 	   54.0000 	    7.6547
    0.4959 	    4.0550 	   22.0000 	   54.0000 	    9.2738
    0.8164 	    4.4633 	   22.0000 	   54.0000 	   10.9069
    0.8469 	    4.8730 	   22.0000 	   54.0000 	   12.5460
    0.9384 	    5.2845 	   22.0000 	   54.0000 	   14.1921
    1.2284 	    5.6958 	   22.0000 	   54.0000 	   15.8372
    1.3046 	    6.1185 	   22.0000 	   54.0000 	   17.5283
    1.2741 	    6.5325 	   22.0000 	   54.0000 	   19.1844
    1.4725 	    6.9493 	   22.0000 	   54.0000 	   20.8505
    1.5183 	    7.3735 	   22.0000 	   54.0000 	   22.5476
    1.6861 	    7.8068 	   22.0000 	   54.0000 	   24.2807
    1.6709 	    8.2473 	   22.0000 	   54.0000 	   26.0428
    1.7166 	    8.6805 	   22.0000 	   54.0000 	   27.7759
    1.9303 	    9.1135 	   22.0000 	   54.0000 	   29.5080
    1.9150 	    9.5500 	   22.0000 	   54.0000 	   31.2541
    2.0371 	    9.9860 	   22.0000 	   54.0000 	   32.9982
    2.1744 	   10.4295 	   22.0000 	   54.0000 	   34.7723
    2.1744 	   10.8663 	   22.0000 	   54.0000 	   36.5194
    2.1744 	   11.3110 	   22.0000 	   54.0000 	   38.2975
    2.2965 	   11.7555 	   22.0000 	   54.0000 	   40.0756
    2.5406 	   12.1865 	   22.0000 	   54.0000 	   41.7997
    2.4948 	   12.6030 	   22.0000 	   54.0000 	   43.4658
    2.6627 	   13.0575 	   22.0000 	   54.0000 	   45.2839
    2.3423 	   13.4970 	   22.0000 	   54.0000 	   47.0420
    2.7237 	   13.9318 	   22.0000 	   54.0000 	   48.7811
    3.0137 	   14.3945 	   22.0000 	   54.0000 	   50.6322
    2.9221 	   14.8363 	   22.0000 	   54.0000 	   52.3993
    2.9374 	   15.2920 	   22.0000 	   54.0000 	   54.2224
    3.1357 	   15.7293 	   22.0000 	   54.0000 	   55.9705
    3.1357 	   16.1807 	   22.0000 	   54.0000 	   57.7766
    3.2731 	   16.6513 	   22.0000 	   54.0000 	   59.6587
    3.3799 	   17.1175 	   22.0000 	   55.0000 	    1.5238
    3.4867 	   17.5950 	   22.0000 	   55.0000 	    3.4339
    3.6088 	   18.0633 	   22.0000 	   55.0000 	    5.3070
    3.5935 	   18.5283 	   22.0000 	   55.0000 	    7.1671
    3.8987 	   19.0105 	   22.0000 	   55.0000 	    9.0962
    3.6393 	   19.4780 	   22.0000 	   55.0000 	   10.9663
    3.8682 	   19.9635 	   22.0000 	   55.0000 	   12.9075
    4.1428 	   20.4508 	   22.0000 	   55.0000 	   14.8566
    4.1123 	   20.9278 	   22.0000 	   55.0000 	   16.7647
    4.2802 	   21.3868 	   22.0000 	   55.0000 	   18.6008
    4.4633 	   21.8683 	   22.0000 	   55.0000 	   20.5269
    4.5853 	   22.3428 	   22.0000 	   55.0000 	   22.4250
    4.7837 	   22.8500 	   22.0000 	   55.0000 	   24.4541
    4.7074 	   23.3073 	   22.0000 	   55.0000 	   26.2832
    5.1194 	   23.7993 	   22.0000 	   55.0000 	   28.2513
    5.1499 	   24.3008 	   22.0000 	   55.0000 	   30.2565
    5.0584 	   24.7770 	   22.0000 	   55.0000 	   32.1616
    5.3178 	   25.2623 	   22.0000 	   55.0000 	   34.1027
    5.5314 	   25.7478 	   22.0000 	   55.0000 	   36.0448
    5.6077 	   26.2370 	   22.0000 	   55.0000 	   38.0019
    5.8518 	   26.7058 	   22.0000 	   55.0000 	   39.8770
    5.9129 	   27.2200 	   22.0000 	   55.0000 	   41.9341
    6.1570 	   27.7130 	   22.0000 	   55.0000 	   43.9062
    6.1875 	   28.2005 	   22.0000 	   55.0000 	   45.8563
    6.4622 	   28.7115 	   22.0000 	   55.0000 	   47.8995
    6.6300 	   29.2030 	   22.0000 	   55.0000 	   49.8656
    6.7063 	   29.7030 	   22.0000 	   55.0000 	   51.8657
    7.2557 	   30.2210 	   22.0000 	   55.0000 	   53.9378
    7.4388 	   30.7293 	   22.0000 	   55.0000 	   55.9709
    7.5608 	   31.2255 	   22.0000 	   55.0000 	   57.9560
    7.9423 	   31.7298 	   22.0000 	   55.0000 	   59.9732
    8.2017 	   32.2368 	   22.0000 	   56.0000 	    2.0013
    8.5222 	   32.7323 	   22.0000 	   56.0000 	    3.9824
    8.7510 	   33.2308 	   22.0000 	   56.0000 	    5.9765
    9.0410 	   33.7405 	   22.0000 	   56.0000 	    8.0156
    9.2241 	   34.2698 	   22.0000 	   56.0000 	   10.1327
    9.8802 	   34.7843 	   22.0000 	   56.0000 	   12.1909
   10.2770 	   35.3118 	   22.0000 	   56.0000 	   14.3010
   10.7805 	   35.8413 	   22.0000 	   56.0000 	   16.4191
   11.3909 	   36.3650 	   22.0000 	   56.0000 	   18.5142
   11.8944 	   36.9050 	   22.0000 	   56.0000 	   20.6743
   12.3217 	   37.4428 	   22.0000 	   56.0000 	   22.8245
   13.1609 	   37.9755 	   22.0000 	   56.0000 	   24.9556
   13.8781 	   38.5055 	   22.0000 	   56.0000 	   27.0757
   14.9004 	   39.0400 	   22.0000 	   56.0000 	   29.2138
   15.2056 	   39.5655 	   22.0000 	   56.0000 	   31.3159
   16.3043 	   40.0980 	   22.0000 	   56.0000 	   33.4461
   17.2351 	   40.6250 	   22.0000 	   56.0000 	   35.5542
   17.0825 	   41.1663 	   22.0000 	   56.0000 	   37.7193
   16.7468 	   41.7278 	   22.0000 	   56.0000 	   39.9644
   16.5484 	   42.2943 	   22.0000 	   56.0000 	   42.2306
   16.3195 	   42.8640 	   22.0000 	   56.0000 	   44.5097
   16.3195 	   43.4005 	   22.0000 	   56.0000 	   46.6558
   16.0754 	   43.9595 	   22.0000 	   56.0000 	   48.8919
   15.8618 	   44.5320 	   22.0000 	   56.0000 	   51.1821
   15.6786 	   45.0970 	   22.0000 	   56.0000 	   53.4422
   15.6939 	   45.6563 	   22.0000 	   56.0000 	   55.6793
   15.6176 	   46.2265 	   22.0000 	   56.0000 	   57.9595
   15.1904 	   46.7778 	   22.0000 	   57.0000 	    0.1646
   15.3735 	   47.3295 	   22.0000 	   57.0000 	    2.3717
   15.3735 	   47.8780 	   22.0000 	   57.0000 	    4.5658
   15.2209 	   48.4365 	   22.0000 	   57.0000 	    6.8000
   15.2361 	   49.0068 	   22.0000 	   57.0000 	    9.0811
   15.3429 	   49.5988 	   22.0000 	   57.0000 	   11.4492
   15.1293 	   50.2003 	   22.0000 	   57.0000 	   13.8554
   15.1598 	   50.8138 	   22.0000 	   57.0000 	   16.3085
   15.0225 	   51.4248 	   22.0000 	   57.0000 	   18.7527
   15.0378 	   52.0415 	   22.0000 	   57.0000 	   21.2198
   14.8852 	   52.6530 	   22.0000 	   57.0000 	   23.6659
   14.9920 	   53.2620 	   22.0000 	   57.0000 	   26.1021
   15.0072 	   53.8808 	   22.0000 	   57.0000 	   28.5772
   14.9920 	   54.4898 	   22.0000 	   57.0000 	   31.0134
   14.8547 	   55.1000 	   22.0000 	   57.0000 	   33.4535
   14.7631 	   55.7230 	   22.0000 	   57.0000 	   35.9456
   14.8241 	   56.3345 	   22.0000 	   57.0000 	   38.3918
   14.7021 	   56.9538 	   22.0000 	   57.0000 	   40.8689
   14.7936 	   57.5773 	   22.0000 	   57.0000 	   43.3631
   14.6410 	   58.2095 	   22.0000 	   57.0000 	   45.8922
   14.7936 	   58.8343 	   22.0000 	   57.0000 	   48.3914
   12.5353 	   59.4645 	   22.0000 	   57.0000 	   50.9115
   10.4753 	   60.1035 	   22.0000 	   57.0000 	   53.4676
    8.9342 	   60.7543 	   22.0000 	   57.0000 	   56.0708
    8.0339 	   61.3978 	   22.0000 	   57.0000 	   58.6449
    7.2862 	   62.0560 	   22.0000 	   58.0000 	    1.2781
    6.7521 	   62.7173 	   22.0000 	   58.0000 	    3.9232
    6.2181 	   63.3628 	   22.0000 	   58.0000 	    6.5054
    5.8671 	   64.0173 	   22.0000 	   58.0000 	    9.1225
    5.5619 	   64.6705 	   22.0000 	   58.0000 	   11.7357
    5.0126 	   65.3200 	   22.0000 	   58.0000 	   14.3338
    5.0736 	   65.9770 	   22.0000 	   58.0000 	   16.9620
    4.7532 	   66.6378 	   22.0000 	   58.0000 	   19.6051
    4.5243 	   67.3040 	   22.0000 	   58.0000 	   22.2703
    4.3259 	   67.9785 	   22.0000 	   58.0000 	   24.9674
    4.2344 	   68.6455 	   22.0000 	   58.0000 	   27.6356
    3.8987 	   69.3335 	   22.0000 	   58.0000 	   30.3878
    3.8376 	   70.0168 	   22.0000 	   58.0000 	   33.1209
    3.7308 	   70.6903 	   22.0000 	   58.0000 	   35.8151
    3.3188 	   71.3545 	   22.0000 	   58.0000 	   38.4722
    3.4409 	   72.0265 	   22.0000 	   58.0000 	   41.1604
    3.3341 	   72.7053 	   22.0000 	   58.0000 	   43.8745
    3.0900 	   73.3750 	   22.0000 	   58.0000 	   46.5537
    2.9374 	   74.0718 	   22.0000 	   58.0000 	   49.3408
    2.9068 	   74.7668 	   22.0000 	   58.0000 	   52.1210
    2.8916 	   75.4568 	   22.0000 	   58.0000 	   54.8812
    2.6932 	   76.1525 	   22.0000 	   58.0000 	   57.6643
    2.6322 	   76.8425 	   22.0000 	   59.0000 	    0.4235
    2.3575 	   77.5380 	   22.0000 	   59.0000 	    3.2056
    2.6474 	   78.2363 	   22.0000 	   59.0000 	    5.9988
    1.9150 	   78.9328 	   22.0000 	   59.0000 	    8.7850
    2.2354 	   79.6308 	   22.0000 	   59.0000 	   11.5771
    2.0523 	   80.3338 	   22.0000 	   59.0000 	   14.3893
    2.0523 	   81.0405 	   22.0000 	   59.0000 	   17.2154
    1.8845 	   81.7370 	   22.0000 	   59.0000 	   20.0016
    1.8692 	   82.4465 	   22.0000 	   59.0000 	   22.8398
    1.4725 	   83.1558 	   22.0000 	   59.0000 	   25.6769
    1.5640 	   83.8788 	   22.0000 	   59.0000 	   28.5691
    1.5335 	   84.5890 	   22.0000 	   59.0000 	   31.4102
    1.2741 	   85.3000 	   22.0000 	   59.0000 	   34.2534
    1.1521 	   86.0245 	   22.0000 	   59.0000 	   37.1516
    1.0300 	   86.7585 	   22.0000 	   59.0000 	   40.0877
    0.6638 	   87.4898 	   22.0000 	   59.0000 	   43.0129
    0.9384 	   88.2235 	   22.0000 	   59.0000 	   45.9481
    0.9689 	   88.9515 	   22.0000 	   59.0000 	   48.8602
    0.6790 	   89.6928 	   22.0000 	   59.0000 	   51.8244
    0.5264 	   90.4368 	   22.0000 	   59.0000 	   54.8006
    0.3586 	   91.1715 	   22.0000 	   59.0000 	   57.7398
    0.2823 	   91.8845 	   23.0000 	    0.0000 	    0.5919
    0.0992 	   92.6015 	   23.0000 	    0.0000 	    3.4601
    0.0839 	   93.3215 	   23.0000 	    0.0000 	    6.3402
    0.0992 	   93.5113 	   23.0000 	    0.0000 	    7.0993