Folder: Smart-Fabrics/instron

File: 10_grey_1W15L_drag40_spd15.txt
Thayer School of Engineering        Instron 4442 Mechanical Testing System
6/28/2018 3:08:00 AM

  Force (N)	Extension (mm)	Not Used	Not Used	Not Used	     Hour	    Minute	    Second
    0.2823 	    0.2538 	    3.0000 	    8.0000 	   13.4117
    0.2365 	    0.7630 	    3.0000 	    8.0000 	   15.4489
    0.0534 	    1.1003 	    3.0000 	    8.0000 	   16.7979
    0.2213 	    1.4318 	    3.0000 	    8.0000 	   18.1240
    0.1450 	    1.7370 	    3.0000 	    8.0000 	   19.3451
    0.3586 	    2.0230 	    3.0000 	    8.0000 	   20.4891
    0.3433 	    2.3368 	    3.0000 	    8.0000 	   21.7442
    0.4044 	    2.6453 	    3.0000 	    8.0000 	   22.9783
    0.4501 	    2.9578 	    3.0000 	    8.0000 	   24.2284
    0.2518 	    3.2855 	    3.0000 	    8.0000 	   25.5384
    0.5570 	    3.6178 	    3.0000 	    8.0000 	   26.8675
    0.6180 	    3.9268 	    3.0000 	    8.0000 	   28.1036
    0.5264 	    4.2530 	    3.0000 	    8.0000 	   29.4076
    0.6485 	    4.5805 	    3.0000 	    8.0000 	   30.7187
    0.6638 	    4.9005 	    3.0000 	    8.0000 	   31.9988
    0.6638 	    5.2333 	    3.0000 	    8.0000 	   33.3299
    0.7858 	    5.5835 	    3.0000 	    8.0000 	   34.7310
    0.4044 	    5.9248 	    3.0000 	    8.0000 	   36.0960
    0.8011 	    6.2608 	    3.0000 	    8.0000 	   37.4401
    0.8774 	    6.5895 	    3.0000 	    8.0000 	   38.7552
    0.8164 	    6.9380 	    3.0000 	    8.0000 	   40.1493
    1.0147 	    7.2778 	    3.0000 	    8.0000 	   41.5083
    1.2436 	    7.6280 	    3.0000 	    8.0000 	   42.9084
    0.9232 	    7.9823 	    3.0000 	    8.0000 	   44.3255
    0.8927 	    8.3235 	    3.0000 	    8.0000 	   45.6906
    1.2284 	    8.6665 	    3.0000 	    8.0000 	   47.0627
    1.1368 	    9.0160 	    3.0000 	    8.0000 	   48.4607
    0.9995 	    9.3645 	    3.0000 	    8.0000 	   49.8548
    1.3352 	    9.7275 	    3.0000 	    8.0000 	   51.3069
    1.0910 	   10.0850 	    3.0000 	    8.0000 	   52.7370
    0.9079 	   10.4485 	    3.0000 	    8.0000 	   54.1911
    1.3504 	   10.8180 	    3.0000 	    8.0000 	   55.6692
    1.2436 	   11.1983 	    3.0000 	    8.0000 	   57.1902
    1.4115 	   11.5750 	    3.0000 	    8.0000 	   58.6973
    1.3352 	   11.9350 	    3.0000 	    9.0000 	    0.1364
    1.2894 	   12.3040 	    3.0000 	    9.0000 	    1.6125
    1.4725 	   12.6825 	    3.0000 	    9.0000 	    3.1266
    1.3962 	   13.0643 	    3.0000 	    9.0000 	    4.6537
    1.4878 	   13.4530 	    3.0000 	    9.0000 	    6.2088
    1.4420 	   13.8328 	    3.0000 	    9.0000 	    7.7278
    1.4267 	   14.2098 	    3.0000 	    9.0000 	    9.2359
    1.4725 	   14.6020 	    3.0000 	    9.0000 	   10.8050
    1.5488 	   14.9928 	    3.0000 	    9.0000 	   12.3681
    1.5640 	   15.3813 	    3.0000 	    9.0000 	   13.9222
    1.5946 	   15.7740 	    3.0000 	    9.0000 	   15.4933
    1.7624 	   16.1825 	    3.0000 	    9.0000 	   17.1264
    1.5946 	   16.5710 	    3.0000 	    9.0000 	   18.6805
    1.7777 	   16.9513 	    3.0000 	    9.0000 	   20.2016
    1.7929 	   17.3435 	    3.0000 	    9.0000 	   21.7706
    1.7472 	   17.7280 	    3.0000 	    9.0000 	   23.3087
    1.7319 	   18.1275 	    3.0000 	    9.0000 	   24.9068
    1.8692 	   18.5425 	    3.0000 	    9.0000 	   26.5669
    1.8235 	   18.9418 	    3.0000 	    9.0000 	   28.1640
    1.9608 	   19.3440 	    3.0000 	    9.0000 	   29.7731
    1.9150 	   19.7505 	    3.0000 	    9.0000 	   31.3992
    1.8387 	   20.1598 	    3.0000 	    9.0000 	   33.0363
    2.1592 	   20.5833 	    3.0000 	    9.0000 	   34.7294
    2.1592 	   20.9970 	    3.0000 	    9.0000 	   36.3845
    1.7319 	   21.4150 	    3.0000 	    9.0000 	   38.0566
    2.2354 	   21.8383 	    3.0000 	    9.0000 	   39.7497
    2.2812 	   22.2698 	    3.0000 	    9.0000 	   41.4758
    2.1592 	   22.6940 	    3.0000 	    9.0000 	   43.1729
    2.0981 	   23.1138 	    3.0000 	    9.0000 	   44.8520
    2.1439 	   23.5443 	    3.0000 	    9.0000 	   46.5741
    2.4338 	   23.9755 	    3.0000 	    9.0000 	   48.2992
    2.5406 	   24.3960 	    3.0000 	    9.0000 	   49.9813
    2.4796 	   24.8195 	    3.0000 	    9.0000 	   51.6754
    2.5254 	   25.2553 	    3.0000 	    9.0000 	   53.4175
    2.5864 	   25.6825 	    3.0000 	    9.0000 	   55.1266
    2.6932 	   26.1160 	    3.0000 	    9.0000 	   56.8607
    2.6627 	   26.5508 	    3.0000 	    9.0000 	   58.5998
    2.7390 	   26.9910 	    3.0000 	   10.0000 	    0.3609
    2.8763 	   27.4310 	    3.0000 	   10.0000 	    2.1210
    2.8305 	   27.8698 	    3.0000 	   10.0000 	    3.8761
    3.0442 	   28.3008 	    3.0000 	   10.0000 	    5.6002
    2.7848 	   28.7448 	    3.0000 	   10.0000 	    7.3763
    3.1052 	   29.1910 	    3.0000 	   10.0000 	    9.1614
    3.0442 	   29.6375 	    3.0000 	   10.0000 	   10.9465
    3.3494 	   30.0798 	    3.0000 	   10.0000 	   12.7156
    3.1357 	   30.5295 	    3.0000 	   10.0000 	   14.5147
    3.2883 	   30.9735 	    3.0000 	   10.0000 	   16.2908
    3.1815 	   31.4230 	    3.0000 	   10.0000 	   18.0889
    3.2425 	   31.8843 	    3.0000 	   10.0000 	   19.9340
    3.1357 	   32.3273 	    3.0000 	   10.0000 	   21.7061
    3.2731 	   32.7825 	    3.0000 	   10.0000 	   23.5272
    3.3188 	   33.2365 	    3.0000 	   10.0000 	   25.3433
    3.1510 	   33.6855 	    3.0000 	   10.0000 	   27.1384
    3.0900 	   34.1425 	    3.0000 	   10.0000 	   28.9665
    3.1205 	   34.6058 	    3.0000 	   10.0000 	   30.8196
    3.1357 	   35.0633 	    3.0000 	   10.0000 	   32.6497
    3.1052 	   35.5312 	    3.0000 	   10.0000 	   34.5218
    3.1510 	   35.9918 	    3.0000 	   10.0000 	   36.3639
    3.1357 	   36.4643 	    3.0000 	   10.0000 	   38.2540
    2.9221 	   36.9295 	    3.0000 	   10.0000 	   40.1151
    3.0289 	   37.4080 	    3.0000 	   10.0000 	   42.0292
    2.7390 	   37.8773 	    3.0000 	   10.0000 	   43.9063
    3.0289 	   38.3535 	    3.0000 	   10.0000 	   45.8105
    3.1968 	   38.8330 	    3.0000 	   10.0000 	   47.7286
    2.9984 	   39.3183 	    3.0000 	   10.0000 	   49.6697
    3.0289 	   39.8078 	    3.0000 	   10.0000 	   51.6278
    2.9679 	   40.2988 	    3.0000 	   10.0000 	   53.5919
    3.1052 	   40.7823 	    3.0000 	   10.0000 	   55.5260
    3.0594 	   41.2743 	    3.0000 	   10.0000 	   57.4941
    3.1205 	   41.7698 	    3.0000 	   10.0000 	   59.4762
    3.1357 	   42.2678 	    3.0000 	   11.0000 	    1.4683
    3.1510 	   42.7703 	    3.0000 	   11.0000 	    3.4775
    3.0289 	   43.2740 	    3.0000 	   11.0000 	    5.4926
    2.9526 	   43.7753 	    3.0000 	   11.0000 	    7.4977
    2.9374 	   44.2865 	    3.0000 	   11.0000 	    9.5428
    2.8916 	   44.7923 	    3.0000 	   11.0000 	   11.5659
    3.1357 	   45.3028 	    3.0000 	   11.0000 	   13.6080
    3.0442 	   45.8148 	    3.0000 	   11.0000 	   15.6562
    2.6780 	   46.3325 	    3.0000 	   11.0000 	   17.7273
    2.9679 	   46.8448 	    3.0000 	   11.0000 	   19.7754
    2.7390 	   47.3573 	    3.0000 	   11.0000 	   21.8255
    2.5864 	   47.8625 	    3.0000 	   11.0000 	   23.8466
    2.4796 	   48.3790 	    3.0000 	   11.0000 	   25.9127
    2.3880 	   48.8898 	    3.0000 	   11.0000 	   27.9559
    2.2202 	   49.4103 	    3.0000 	   11.0000 	   30.0380
    2.2202 	   49.9363 	    3.0000 	   11.0000 	   32.1421
    2.2202 	   50.4630 	    3.0000 	   11.0000 	   34.2492
    2.1744 	   50.9990 	    3.0000 	   11.0000 	   36.3933
    2.0218 	   51.5365 	    3.0000 	   11.0000 	   38.5425
    1.8235 	   52.0723 	    3.0000 	   11.0000 	   40.6856
    1.8540 	   52.6095 	    3.0000 	   11.0000 	   42.8347
    1.8845 	   53.1420 	    3.0000 	   11.0000 	   44.9648
    1.8692 	   53.6860 	    3.0000 	   11.0000 	   47.1410
    1.6098 	   54.2388 	    3.0000 	   11.0000 	   49.3521
    1.5488 	   54.7825 	    3.0000 	   11.0000 	   51.5272
    1.4420 	   55.3203 	    3.0000 	   11.0000 	   53.6783
    1.2436 	   55.8648 	    3.0000 	   11.0000 	   55.8555
    1.3809 	   56.4138 	    3.0000 	   11.0000 	   58.0516
    1.3809 	   56.9710 	    3.0000 	   12.0000 	    0.2807
    1.3657 	   57.5345 	    3.0000 	   12.0000 	    2.5348
    1.3809 	   58.0810 	    3.0000 	   12.0000 	    4.7210
    1.3504 	   58.6433 	    3.0000 	   12.0000 	    6.9701
    1.3809 	   59.2025 	    3.0000 	   12.0000 	    9.2072
    1.1826 	   59.7565 	    3.0000 	   12.0000 	   11.4233
    1.0910 	   60.3195 	    3.0000 	   12.0000 	   13.6745
    1.3962 	   60.8920 	    3.0000 	   12.0000 	   15.9646
    1.2741 	   61.4580 	    3.0000 	   12.0000 	   18.2287
    0.9384 	   62.0388 	    3.0000 	   12.0000 	   20.5519
    0.9842 	   62.6078 	    3.0000 	   12.0000 	   22.8280
    0.8774 	   63.1788 	    3.0000 	   12.0000 	   25.1121
    1.0758 	   63.7488 	    3.0000 	   12.0000 	   27.3923
    0.7401 	   64.3145 	    3.0000 	   12.0000 	   29.6544
    0.6943 	   64.8983 	    3.0000 	   12.0000 	   31.9895
    0.7706 	   65.4820 	    3.0000 	   12.0000 	   34.3247
    0.7095 	   66.0715 	    3.0000 	   12.0000 	   36.6828
    0.6638 	   66.6583 	    3.0000 	   12.0000 	   39.0299
    0.6485 	   67.2433 	    3.0000 	   12.0000 	   41.3691
    0.5112 	   67.8320 	    3.0000 	   12.0000 	   43.7252
    0.6638 	   68.4305 	    3.0000 	   12.0000 	   46.1193
    0.4501 	   69.0283 	    3.0000 	   12.0000 	   48.5095
    0.3433 	   69.6265 	    3.0000 	   12.0000 	   50.9026
    0.3586 	   70.2183 	    3.0000 	   12.0000 	   53.2697
    0.4807 	   70.8223 	    3.0000 	   12.0000 	   55.6859
    0.3738 	   71.4220 	    3.0000 	   12.0000 	   58.0850
    0.1297 	   72.0278 	    3.0000 	   13.0000 	    0.5082
    0.1297 	   72.6338 	    3.0000 	   13.0000 	    2.9323
    0.1907 	   73.2383 	    3.0000 	   13.0000 	    5.3494
    0.1907 	   73.8372 	    3.0000 	   13.0000 	    7.7456
   -0.1602 	   74.4523 	    3.0000 	   13.0000 	   10.2057
    0.0992 	   75.0705 	    3.0000 	   13.0000 	   12.6789
    0.1755 	   75.6810 	    3.0000 	   13.0000 	   15.1210
    0.2518 	   76.2965 	    3.0000 	   13.0000 	   17.5831
    0.2518 	   76.9245 	    3.0000 	   13.0000 	   20.0953
    0.1602 	   77.5573 	    3.0000 	   13.0000 	   22.6254
    0.0992 	   78.1765 	    3.0000 	   13.0000 	   25.1026
    0.0839 	   78.3658 	    3.0000 	   13.0000 	   25.8596

File: 10_grey_1W15L_drag40_spd15_nonstop.txt
Thayer School of Engineering        Instron 4442 Mechanical Testing System
6/28/2018 3:14:42 AM

  Force (N)	Extension (mm)	Not Used	Not Used	Not Used	     Hour	    Minute	    Second
    0.1297 	    0.2543 	    3.0000 	   15.0000 	    1.9641
    0.1907 	    0.6963 	    3.0000 	   15.0000 	    3.7322
    0.1144 	    1.0113 	    3.0000 	   15.0000 	    4.9923
    0.2670 	    1.2803 	    3.0000 	   15.0000 	    6.0683
    0.1907 	    1.5423 	    3.0000 	   15.0000 	    7.1154
    0.0534 	    1.8178 	    3.0000 	   15.0000 	    8.2175
    0.0839 	    2.0765 	    3.0000 	   15.0000 	    9.2525
    0.1450 	    2.3265 	    3.0000 	   15.0000 	   10.2526
    0.1755 	    2.5743 	    3.0000 	   15.0000 	   11.2436
    0.0992 	    2.8413 	    3.0000 	   15.0000 	   12.3117
    0.2518 	    3.1140 	    3.0000 	   15.0000 	   13.4028
    0.1907 	    3.3875 	    3.0000 	   15.0000 	   14.4968
    0.2823 	    3.6593 	    3.0000 	   15.0000 	   15.5839
    0.4654 	    3.9240 	    3.0000 	   15.0000 	   16.6429
    0.2670 	    4.1985 	    3.0000 	   15.0000 	   17.7410
    0.2060 	    4.4755 	    3.0000 	   15.0000 	   18.8491
    0.2518 	    4.7553 	    3.0000 	   15.0000 	   19.9681
    0.2823 	    5.0425 	    3.0000 	   15.0000 	   21.1172
    0.4044 	    5.3293 	    3.0000 	   15.0000 	   22.2643
    0.3433 	    5.6133 	    3.0000 	   15.0000 	   23.4003
    0.4959 	    5.8993 	    3.0000 	   15.0000 	   24.5434
    0.6485 	    6.1873 	    3.0000 	   15.0000 	   25.6955
    0.6485 	    6.4815 	    3.0000 	   15.0000 	   26.8725
    0.5112 	    6.7703 	    3.0000 	   15.0000 	   28.0276
    0.6638 	    7.0443 	    3.0000 	   15.0000 	   29.1237
    0.6332 	    7.3355 	    3.0000 	   15.0000 	   30.2887
    0.7401 	    7.6258 	    3.0000 	   15.0000 	   31.4498
    0.6943 	    7.9130 	    3.0000 	   15.0000 	   32.5989
    0.6943 	    8.2073 	    3.0000 	   15.0000 	   33.7759
    0.8469 	    8.5052 	    3.0000 	   15.0000 	   34.9680
    0.8011 	    8.7900 	    3.0000 	   15.0000 	   36.1071
    0.8774 	    9.1048 	    3.0000 	   15.0000 	   37.3661
    0.9689 	    9.3965 	    3.0000 	   15.0000 	   38.5332
    0.8927 	    9.7063 	    3.0000 	   15.0000 	   39.7723
    0.9232 	   10.0005 	    3.0000 	   15.0000 	   40.9493
    0.8621 	   10.3000 	    3.0000 	   15.0000 	   42.1464
    1.0605 	   10.6118 	    3.0000 	   15.0000 	   43.3935
    1.0452 	   10.9103 	    3.0000 	   15.0000 	   44.5875
    0.7706 	   11.2043 	    3.0000 	   15.0000 	   45.7636
    1.2741 	   11.5075 	    3.0000 	   15.0000 	   46.9767
    1.1063 	   11.8258 	    3.0000 	   15.0000 	   48.2498
    1.1673 	   12.1413 	    3.0000 	   15.0000 	   49.5118
    1.1215 	   12.4580 	    3.0000 	   15.0000 	   50.7789
    1.2436 	   12.7703 	    3.0000 	   15.0000 	   52.0280
    1.1826 	   13.0853 	    3.0000 	   15.0000 	   53.2880
    1.2131 	   13.4008 	    3.0000 	   15.0000 	   54.5501
    0.9995 	   13.7175 	    3.0000 	   15.0000 	   55.8172
    1.4420 	   14.0358 	    3.0000 	   15.0000 	   57.0903
    1.4267 	   14.3570 	    3.0000 	   15.0000 	   58.3753
    1.4420 	   14.6798 	    3.0000 	   15.0000 	   59.6654
    1.4878 	   15.0070 	    3.0000 	   16.0000 	    0.9745
    1.5793 	   15.3330 	    3.0000 	   16.0000 	    2.2786
    1.5030 	   15.6655 	    3.0000 	   16.0000 	    3.6086
    1.4878 	   15.9983 	    3.0000 	   16.0000 	    4.9397
    1.3809 	   16.3238 	    3.0000 	   16.0000 	    6.2418
    1.5946 	   16.6548 	    3.0000 	   16.0000 	    7.5659
    1.7319 	   16.9893 	    3.0000 	   16.0000 	    8.9039
    1.5640 	   17.3240 	    3.0000 	   16.0000 	   10.2430
    1.7166 	   17.6580 	    3.0000 	   16.0000 	   11.5791
    1.7777 	   17.9948 	    3.0000 	   16.0000 	   12.9262
    1.6251 	   18.3345 	    3.0000 	   16.0000 	   14.2852
    1.7166 	   18.6783 	    3.0000 	   16.0000 	   15.6603
    1.7624 	   19.0195 	    3.0000 	   16.0000 	   17.0244
    1.7472 	   19.3615 	    3.0000 	   16.0000 	   18.3925
    1.7014 	   19.7120 	    3.0000 	   16.0000 	   19.7946
    1.8235 	   20.0510 	    3.0000 	   16.0000 	   21.1506
    1.9303 	   20.3975 	    3.0000 	   16.0000 	   22.5367
    1.9455 	   20.7503 	    3.0000 	   16.0000 	   23.9478
    2.0829 	   21.0965 	    3.0000 	   16.0000 	   25.3329
    2.1286 	   21.4493 	    3.0000 	   16.0000 	   26.7440
    2.0371 	   21.7980 	    3.0000 	   16.0000 	   28.1380
    2.1897 	   22.1513 	    3.0000 	   16.0000 	   29.5521
    2.0829 	   22.5070 	    3.0000 	   16.0000 	   30.9752
    2.1897 	   22.8633 	    3.0000 	   16.0000 	   32.4003
    2.2354 	   23.2270 	    3.0000 	   16.0000 	   33.8554
    1.9913 	   23.5838 	    3.0000 	   16.0000 	   35.2814
    2.1897 	   23.9525 	    3.0000 	   16.0000 	   36.7565
    2.3423 	   24.3158 	    3.0000 	   16.0000 	   38.2096
    2.3575 	   24.6773 	    3.0000 	   16.0000 	   39.6557
    2.4338 	   25.0420 	    3.0000 	   16.0000 	   41.1148
    2.5559 	   25.4075 	    3.0000 	   16.0000 	   42.5769
    2.1439 	   25.7760 	    3.0000 	   16.0000 	   44.0509
    2.5101 	   26.1448 	    3.0000 	   16.0000 	   45.5260
    2.5711 	   26.5180 	    3.0000 	   16.0000 	   47.0191
    2.6322 	   26.8903 	    3.0000 	   16.0000 	   48.5082
    2.6169 	   27.2628 	    3.0000 	   16.0000 	   49.9983
    2.7390 	   27.6345 	    3.0000 	   16.0000 	   51.4844
    2.8000 	   28.0125 	    3.0000 	   16.0000 	   52.9965
    2.7695 	   28.3900 	    3.0000 	   16.0000 	   54.5065
    2.7543 	   28.7735 	    3.0000 	   16.0000 	   56.0406
    2.8763 	   29.1548 	    3.0000 	   16.0000 	   57.5657
    2.9068 	   29.5380 	    3.0000 	   16.0000 	   59.0988
    2.9526 	   29.9190 	    3.0000 	   17.0000 	    0.6229
    3.0900 	   30.3018 	    3.0000 	   17.0000 	    2.1540
    3.0442 	   30.6785 	    3.0000 	   17.0000 	    3.6611
    3.1510 	   31.0663 	    3.0000 	   17.0000 	    5.2122
    3.0137 	   31.4538 	    3.0000 	   17.0000 	    6.7622
    2.7543 	   31.8378 	    3.0000 	   17.0000 	    8.2983
    2.5406 	   32.2388 	    3.0000 	   17.0000 	    9.9004
    2.5559 	   32.6275 	    3.0000 	   17.0000 	   11.4565
    2.4186 	   33.0195 	    3.0000 	   17.0000 	   13.0246
    2.3117 	   33.4005 	    3.0000 	   17.0000 	   14.5487
    2.3423 	   33.7938 	    3.0000 	   17.0000 	   16.1218
    2.2965 	   34.1883 	    3.0000 	   17.0000 	   17.6999
    2.1592 	   34.5930 	    3.0000 	   17.0000 	   19.3190
    2.1439 	   34.9950 	    3.0000 	   17.0000 	   20.9271
    1.9913 	   35.3965 	    3.0000 	   17.0000 	   22.5331
    1.8387 	   35.8020 	    3.0000 	   17.0000 	   24.1552
    2.0218 	   36.2093 	    3.0000 	   17.0000 	   25.7843
    1.9455 	   36.6215 	    3.0000 	   17.0000 	   27.4324
    1.7472 	   37.0295 	    3.0000 	   17.0000 	   29.0645
    1.7777 	   37.4338 	    3.0000 	   17.0000 	   30.6816
    1.8845 	   37.8403 	    3.0000 	   17.0000 	   32.3077
    1.6556 	   38.2545 	    3.0000 	   17.0000 	   33.9648
    1.6403 	   38.6630 	    3.0000 	   17.0000 	   35.5989
    1.5793 	   39.0768 	    3.0000 	   17.0000 	   37.2540
    1.4725 	   39.4923 	    3.0000 	   17.0000 	   38.9161
    1.5488 	   39.9053 	    3.0000 	   17.0000 	   40.5682
    1.5488 	   40.3255 	    3.0000 	   17.0000 	   42.2493
    1.3962 	   40.7390 	    3.0000 	   17.0000 	   43.9024
    1.3504 	   41.1390 	    3.0000 	   17.0000 	   45.5025
    1.2894 	   41.5508 	    3.0000 	   17.0000 	   47.1496
    1.4572 	   41.9583 	    3.0000 	   17.0000 	   48.7796
    1.2284 	   42.3725 	    3.0000 	   17.0000 	   50.4367
    1.3809 	   42.7855 	    3.0000 	   17.0000 	   52.0888
    1.1521 	   43.1953 	    3.0000 	   17.0000 	   53.7279
    1.1673 	   43.6108 	    3.0000 	   17.0000 	   55.3900
    1.1368 	   44.0285 	    3.0000 	   17.0000 	   57.0611
    1.1215 	   44.4465 	    3.0000 	   17.0000 	   58.7332
    1.1826 	   44.8575 	    3.0000 	   18.0000 	    0.3773
    0.8469 	   45.2900 	    3.0000 	   18.0000 	    2.1064
    0.8774 	   45.7038 	    3.0000 	   18.0000 	    3.7605
    0.9689 	   46.1205 	    3.0000 	   18.0000 	    5.4286
    1.0147 	   46.5528 	    3.0000 	   18.0000 	    7.1577
    0.9842 	   46.9790 	    3.0000 	   18.0000 	    8.8628
    0.9689 	   47.4048 	    3.0000 	   18.0000 	   10.5659
    0.8621 	   47.8233 	    3.0000 	   18.0000 	   12.2400
    0.9232 	   48.2565 	    3.0000 	   18.0000 	   13.9731
    0.9537 	   48.6925 	    3.0000 	   18.0000 	   15.7172
    0.7401 	   49.1290 	    3.0000 	   18.0000 	   17.4633
    0.6790 	   49.5560 	    3.0000 	   18.0000 	   19.1704
    0.6790 	   49.9945 	    3.0000 	   18.0000 	   20.9245
    0.6943 	   50.4275 	    3.0000 	   18.0000 	   22.6566
    0.6638 	   50.8823 	    3.0000 	   18.0000 	   24.4757
    0.3891 	   51.3438 	    3.0000 	   18.0000 	   26.3218
    0.6790 	   51.8050 	    3.0000 	   18.0000 	   28.1669
    0.7401 	   52.2683 	    3.0000 	   18.0000 	   30.0200
    0.6180 	   52.7430 	    3.0000 	   18.0000 	   31.9191
    0.4044 	   53.2073 	    3.0000 	   18.0000 	   33.7762
    0.4349 	   53.6755 	    3.0000 	   18.0000 	   35.6493
    0.2976 	   54.1510 	    3.0000 	   18.0000 	   37.5504
    0.3586 	   54.6185 	    3.0000 	   18.0000 	   39.4205
    0.2213 	   55.0958 	    3.0000 	   18.0000 	   41.3297
    0.2518 	   55.5653 	    3.0000 	   18.0000 	   43.2078
    0.1907 	   56.0398 	    3.0000 	   18.0000 	   45.1059
    0.1144 	   56.5188 	    3.0000 	   18.0000 	   47.0220
    0.1907 	   56.9933 	    3.0000 	   18.0000 	   48.9201
    0.2518 	   57.4733 	    3.0000 	   18.0000 	   50.8402
    0.1602 	   57.9565 	    3.0000 	   18.0000 	   52.7733
    0.0076 	   58.4375 	    3.0000 	   18.0000 	   54.6964
    0.2670 	   58.9248 	    3.0000 	   18.0000 	   56.6455
    0.1602 	   59.4085 	    3.0000 	   18.0000 	   58.5806
    0.1144 	   59.9015 	    3.0000 	   19.0000 	    0.5527
    0.0534 	   60.3893 	    3.0000 	   19.0000 	    2.5039
    0.1297 	   60.8808 	    3.0000 	   19.0000 	    4.4700
    0.1755 	   61.3760 	    3.0000 	   19.0000 	    6.4511
    0.0381 	   61.8735 	    3.0000 	   19.0000 	    8.4412
    0.1450 	   62.3263 	    3.0000 	   19.0000 	   10.2523