Folder: Smart-Fabrics/instron (part 3)

File: 10_grey_2W15L_drag30_spd15.txt
Thayer School of Engineering        Instron 4442 Mechanical Testing System
6/28/2018 1:31:21 AM

  Force (N)	Extension (mm)	Not Used	Not Used	Not Used	     Hour	    Minute	    Second
    0.0076 	    0.2565 	    1.0000 	   31.0000 	   36.9822
    0.1450 	    0.8330 	    1.0000 	   31.0000 	   39.2883
    0.1144 	    1.2438 	    1.0000 	   31.0000 	   40.9314
    0.0992 	    1.6333 	    1.0000 	   31.0000 	   42.4895
    0.0992 	    2.0255 	    1.0000 	   31.0000 	   44.0586
    0.2518 	    2.4130 	    1.0000 	   31.0000 	   45.6087
    0.1755 	    2.8170 	    1.0000 	   31.0000 	   47.2248
    0.0992 	    3.2155 	    1.0000 	   31.0000 	   48.8179
    0.2670 	    3.6183 	    1.0000 	   31.0000 	   50.4290
   -0.0229 	    4.0258 	    1.0000 	   31.0000 	   52.0591
    0.0839 	    4.4355 	    1.0000 	   31.0000 	   53.6982
    0.1144 	    4.8490 	    1.0000 	   31.0000 	   55.3522
    0.1297 	    5.2688 	    1.0000 	   31.0000 	   57.0313
    0.2518 	    5.6943 	    1.0000 	   31.0000 	   58.7334
    0.0534 	    6.1208 	    1.0000 	   32.0000 	    0.4395
   -0.0229 	    6.5528 	    1.0000 	   32.0000 	    2.1676
    0.1297 	    6.9783 	    1.0000 	   32.0000 	    3.8697
   -0.0534 	    7.4223 	    1.0000 	   32.0000 	    5.6458
    0.0992 	    7.8678 	    1.0000 	   32.0000 	    7.4269
    0.1297 	    8.2950 	    1.0000 	   32.0000 	    9.1360
    0.3281 	    8.7165 	    1.0000 	   32.0000 	   10.8221
    0.6180 	    9.1683 	    1.0000 	   32.0000 	   12.6292
    0.6332 	    9.6108 	    1.0000 	   32.0000 	   14.3993
    0.9842 	   10.0583 	    1.0000 	   32.0000 	   16.1894
    0.8621 	   10.4983 	    1.0000 	   32.0000 	   17.9495
    0.9842 	   10.9468 	    1.0000 	   32.0000 	   19.7436
    1.1215 	   11.3908 	    1.0000 	   32.0000 	   21.5197
    1.2284 	   11.8398 	    1.0000 	   32.0000 	   23.3158
    1.3657 	   12.2963 	    1.0000 	   32.0000 	   25.1410
    1.4267 	   12.7540 	    1.0000 	   32.0000 	   26.9721
    1.5030 	   13.1788 	    1.0000 	   32.0000 	   28.6712
    1.6861 	   13.6418 	    1.0000 	   32.0000 	   30.5233
    1.6556 	   14.1115 	    1.0000 	   32.0000 	   32.4024
    1.8387 	   14.5848 	    1.0000 	   32.0000 	   34.2955
    1.9760 	   15.0428 	    1.0000 	   32.0000 	   36.1276
    1.9760 	   15.4938 	    1.0000 	   32.0000 	   37.9317
    2.2660 	   15.9743 	    1.0000 	   32.0000 	   39.8538
    2.0676 	   16.4565 	    1.0000 	   32.0000 	   41.7819
    2.0981 	   16.9385 	    1.0000 	   32.0000 	   43.7100
    2.2507 	   17.4130 	    1.0000 	   32.0000 	   45.6081
    2.4643 	   17.8860 	    1.0000 	   32.0000 	   47.5002
    2.4796 	   18.3695 	    1.0000 	   32.0000 	   49.4343
    2.5101 	   18.8450 	    1.0000 	   32.0000 	   51.3365
    2.6322 	   19.3210 	    1.0000 	   32.0000 	   53.2406
    2.6780 	   19.7808 	    1.0000 	   32.0000 	   55.0797
    2.7848 	   20.2798 	    1.0000 	   32.0000 	   57.0758
    2.9374 	   20.7595 	    1.0000 	   32.0000 	   58.9939
    2.8000 	   21.2403 	    1.0000 	   33.0000 	    0.9170
    3.0137 	   21.7103 	    1.0000 	   33.0000 	    2.7971
    3.2578 	   22.1905 	    1.0000 	   33.0000 	    4.7182
    3.3494 	   22.6905 	    1.0000 	   33.0000 	    6.7183
    3.3951 	   23.1923 	    1.0000 	   33.0000 	    8.7254
    3.6698 	   23.6948 	    1.0000 	   33.0000 	   10.7356
    3.7308 	   24.1640 	    1.0000 	   33.0000 	   12.6127
    3.7613 	   24.6503 	    1.0000 	   33.0000 	   14.5578
    3.8529 	   25.1150 	    1.0000 	   33.0000 	   16.4159
    3.8834 	   25.5840 	    1.0000 	   33.0000 	   18.2920
    4.0970 	   26.0755 	    1.0000 	   33.0000 	   20.2581
    4.1733 	   26.5835 	    1.0000 	   33.0000 	   22.2902
    4.0665 	   27.0733 	    1.0000 	   33.0000 	   24.2493
    4.3565 	   27.5910 	    1.0000 	   33.0000 	   26.3205
    4.5701 	   28.0808 	    1.0000 	   33.0000 	   28.2796
    4.8600 	   28.5798 	    1.0000 	   33.0000 	   30.2757
    4.7684 	   29.0688 	    1.0000 	   33.0000 	   32.2318
    5.0126 	   29.5568 	    1.0000 	   33.0000 	   34.1819
    5.0278 	   30.0563 	    1.0000 	   33.0000 	   36.1810
    4.9058 	   30.5573 	    1.0000 	   33.0000 	   38.1851
    5.2415 	   31.0795 	    1.0000 	   33.0000 	   40.2743
    5.4704 	   31.5978 	    1.0000 	   33.0000 	   42.3474
    5.6535 	   32.1028 	    1.0000 	   33.0000 	   44.3675
    5.7908 	   32.6235 	    1.0000 	   33.0000 	   46.4506
    6.1570 	   33.1493 	    1.0000 	   33.0000 	   48.5537
    6.1265 	   33.6455 	    1.0000 	   33.0000 	   50.5388
    6.1723 	   34.1555 	    1.0000 	   33.0000 	   52.5780
    6.4927 	   34.6933 	    1.0000 	   33.0000 	   54.7291
    6.6758 	   35.2160 	    1.0000 	   33.0000 	   56.8202
    6.8284 	   35.7388 	    1.0000 	   33.0000 	   58.9113
    7.0726 	   36.2598 	    1.0000 	   34.0000 	    0.9954
    7.3320 	   36.7708 	    1.0000 	   34.0000 	    3.0396
    7.5761 	   37.2810 	    1.0000 	   34.0000 	    5.0807
    7.7287 	   37.8040 	    1.0000 	   34.0000 	    7.1728
    7.9271 	   38.3170 	    1.0000 	   34.0000 	    9.2239
    8.2628 	   38.8335 	    1.0000 	   34.0000 	   11.2900
    7.4540 	   39.3558 	    1.0000 	   34.0000 	   13.3791
    7.7592 	   39.8763 	    1.0000 	   34.0000 	   15.4613
    7.6982 	   40.4073 	    1.0000 	   34.0000 	   17.5854
    7.5456 	   40.9615 	    1.0000 	   34.0000 	   19.8025
    7.6524 	   41.4963 	    1.0000 	   34.0000 	   21.9416
    7.5914 	   42.0480 	    1.0000 	   34.0000 	   24.1488
    7.4845 	   42.6090 	    1.0000 	   34.0000 	   26.3919
    7.3167 	   43.1685 	    1.0000 	   34.0000 	   28.6300
    7.4083 	   43.7348 	    1.0000 	   34.0000 	   30.8951
    7.3167 	   44.2953 	    1.0000 	   34.0000 	   33.1373
    7.3930 	   44.8635 	    1.0000 	   34.0000 	   35.4104
    7.2099 	   45.4200 	    1.0000 	   34.0000 	   37.6365
    7.1794 	   45.9753 	    1.0000 	   34.0000 	   39.8577
    7.2404 	   46.5353 	    1.0000 	   34.0000 	   42.0978
    7.1489 	   47.1098 	    1.0000 	   34.0000 	   44.3949
    7.2251 	   47.6845 	    1.0000 	   34.0000 	   46.6940
    6.7216 	   48.2608 	    1.0000 	   34.0000 	   48.9992
    7.1183 	   48.8458 	    1.0000 	   34.0000 	   51.3393
    7.1794 	   49.4238 	    1.0000 	   34.0000 	   53.6514
    6.9963 	   49.9990 	    1.0000 	   34.0000 	   55.9526
    6.9810 	   50.5928 	    1.0000 	   34.0000 	   58.3277
    7.1183 	   51.1945 	    1.0000 	   35.0000 	    0.7349
    6.9963 	   51.7953 	    1.0000 	   35.0000 	    3.1370
    6.8742 	   52.3978 	    1.0000 	   35.0000 	    5.5471
    6.9810 	   53.0193 	    1.0000 	   35.0000 	    8.0333
    6.9047 	   53.6418 	    1.0000 	   35.0000 	   10.5234
    6.9810 	   54.2703 	    1.0000 	   35.0000 	   13.0376
    6.5232 	   54.9005 	    1.0000 	   35.0000 	   15.5587
    6.5537 	   55.5263 	    1.0000 	   35.0000 	   18.0618
    5.7908 	   56.1530 	    1.0000 	   35.0000 	   20.5680
    5.3788 	   56.7705 	    1.0000 	   35.0000 	   23.0381
    5.1499 	   57.4010 	    1.0000 	   35.0000 	   25.5603
    4.7227 	   58.0243 	    1.0000 	   35.0000 	   28.0534
    4.4633 	   58.6545 	    1.0000 	   35.0000 	   30.5746
    4.1581 	   59.2870 	    1.0000 	   35.0000 	   33.1047
    4.0208 	   59.8930 	    1.0000 	   35.0000 	   35.5288
    3.7156 	   60.4963 	    1.0000 	   35.0000 	   37.9410
    3.5477 	   61.1043 	    1.0000 	   35.0000 	   40.3731
    3.2120 	   61.7173 	    1.0000 	   35.0000 	   42.8253
    3.2273 	   62.3405 	    1.0000 	   35.0000 	   45.3184
    2.9984 	   62.9628 	    1.0000 	   35.0000 	   47.8075
    2.8458 	   63.5783 	    1.0000 	   35.0000 	   50.2697
    2.7543 	   64.2333 	    1.0000 	   35.0000 	   52.8898
    2.5711 	   64.8555 	    1.0000 	   35.0000 	   55.3780
    2.5559 	   65.4977 	    1.0000 	   35.0000 	   57.9471
    2.5101 	   66.1675 	    1.0000 	   36.0000 	    0.6263
    2.2202 	   66.8370 	    1.0000 	   36.0000 	    3.3044
    2.0829 	   67.5128 	    1.0000 	   36.0000 	    6.0076
    2.0829 	   68.1738 	    1.0000 	   36.0000 	    8.6517
    1.9760 	   68.8558 	    1.0000 	   36.0000 	   11.3789
    1.6556 	   69.5288 	    1.0000 	   36.0000 	   14.0710
    1.7014 	   70.2008 	    1.0000 	   36.0000 	   16.7592
    1.5793 	   70.8810 	    1.0000 	   36.0000 	   19.4804
    1.7166 	   71.5648 	    1.0000 	   36.0000 	   22.2155
    1.5183 	   72.2493 	    1.0000 	   36.0000 	   24.9537
    1.5335 	   72.9240 	    1.0000 	   36.0000 	   27.6528
    1.1673 	   73.6083 	    1.0000 	   36.0000 	   30.3890
    1.2589 	   74.3018 	    1.0000 	   36.0000 	   33.1631
    1.1215 	   75.0065 	    1.0000 	   36.0000 	   35.9823
    0.9537 	   75.7075 	    1.0000 	   36.0000 	   38.7865
    0.8621 	   76.4005 	    1.0000 	   36.0000 	   41.5586
    0.7706 	   77.1135 	    1.0000 	   36.0000 	   44.4108
    0.7858 	   77.8180 	    1.0000 	   36.0000 	   47.2279
    0.6485 	   78.5180 	    1.0000 	   36.0000 	   50.0281
    0.5570 	   79.2190 	    1.0000 	   36.0000 	   52.8323
    0.3586 	   79.9280 	    1.0000 	   36.0000 	   55.6684
    0.2976 	   80.6453 	    1.0000 	   36.0000 	   58.5376
    0.2823 	   81.3708 	    1.0000 	   37.0000 	    1.4398
    0.1907 	   82.0835 	    1.0000 	   37.0000 	    4.2899
    0.0076 	   82.8010 	    1.0000 	   37.0000 	    7.1601
    0.0229 	   83.5325 	    1.0000 	   37.0000 	   10.0863
    0.2365 	   84.2558 	    1.0000 	   37.0000 	   12.9794
    0.0534 	   84.9900 	    1.0000 	   37.0000 	   15.9166
    0.0687 	   85.7283 	    1.0000 	   37.0000 	   18.8698
    0.1297 	   86.4533 	    1.0000 	   37.0000 	   21.7689
    0.2213 	   87.1905 	    1.0000 	   37.0000 	   24.7181
    0.0534 	   87.9253 	    1.0000 	   37.0000 	   27.6573
    0.1297 	   88.6538 	    1.0000 	   37.0000 	   30.5714
    0.1907 	   89.3920 	    1.0000 	   37.0000 	   33.5246
    0.1144 	   90.1473 	    1.0000 	   37.0000 	   36.5458
    0.2365 	   90.8990 	    1.0000 	   37.0000 	   39.5519
    0.1755 	   91.6445 	    1.0000 	   37.0000 	   42.5341
    0.2365 	   92.3893 	    1.0000 	   37.0000 	   45.5133
    0.0076 	   93.1455 	    1.0000 	   37.0000 	   48.5385
    0.0229 	   93.8865 	    1.0000 	   37.0000 	   51.5026
    0.0687 	   94.6358 	    1.0000 	   37.0000 	   54.4998
    0.0534 	   94.8920 	    1.0000 	   37.0000 	   55.5248

File: 10_grey_2W15L_drag40_spd15.txt
Thayer School of Engineering        Instron 4442 Mechanical Testing System
6/28/2018 1:39:12 AM

  Force (N)	Extension (mm)	Not Used	Not Used	Not Used	     Hour	    Minute	    Second
    0.0687 	    0.2563 	    1.0000 	   39.0000 	   30.1703
    0.1144 	    0.8698 	    1.0000 	   39.0000 	   32.6244
   -0.0229 	    1.3150 	    1.0000 	   39.0000 	   34.4055
   -0.0076 	    1.7375 	    1.0000 	   39.0000 	   36.0946
    0.0839 	    2.1583 	    1.0000 	   39.0000 	   37.7777
    0.1450 	    2.4793 	    1.0000 	   39.0000 	   39.0618
    0.1602 	    2.7685 	    1.0000 	   39.0000 	   40.2188
    0.0839 	    3.0623 	    1.0000 	   39.0000 	   41.3939
    0.0992 	    3.3568 	    1.0000 	   39.0000 	   42.5720
    0.1144 	    3.6483 	    1.0000 	   39.0000 	   43.7380
   -0.0076 	    3.9390 	    1.0000 	   39.0000 	   44.9011
    0.0992 	    4.2330 	    1.0000 	   39.0000 	   46.0772
    0.1755 	    4.6648 	    1.0000 	   39.0000 	   47.8043
    0.2213 	    5.1218 	    1.0000 	   39.0000 	   49.6324
    0.1450 	    5.5813 	    1.0000 	   39.0000 	   51.4705
    0.1144 	    6.0290 	    1.0000 	   39.0000 	   53.2606
    0.1755 	    6.4563 	    1.0000 	   39.0000 	   54.9697
    0.1297 	    6.9165 	    1.0000 	   39.0000 	   56.8108
    0.1297 	    7.3553 	    1.0000 	   39.0000 	   58.5659
    0.2823 	    7.8003 	    1.0000 	   40.0000 	    0.3460
    0.0687 	    8.2600 	    1.0000 	   40.0000 	    2.1851
    0.0687 	    8.7088 	    1.0000 	   40.0000 	    3.9802
    0.1297 	    9.1748 	    1.0000 	   40.0000 	    5.8443
    0.1144 	    9.6538 	    1.0000 	   40.0000 	    7.7604
    0.2976 	   10.1493 	    1.0000 	   40.0000 	    9.7425
    0.2213 	   10.6338 	    1.0000 	   40.0000 	   11.6796
    0.3433 	   11.1083 	    1.0000 	   40.0000 	   13.5777
    0.2823 	   11.5945 	    1.0000 	   40.0000 	   15.5229
    0.4349 	   12.0978 	    1.0000 	   40.0000 	   17.5360
    0.5570 	   12.5940 	    1.0000 	   40.0000 	   19.5211
    0.8164 	   13.1118 	    1.0000 	   40.0000 	   21.5922
    1.0452 	   13.6235 	    1.0000 	   40.0000 	   23.6393
    1.1673 	   14.0890 	    1.0000 	   40.0000 	   25.5014
    1.1368 	   14.5690 	    1.0000 	   40.0000 	   27.4215
    1.1826 	   15.0635 	    1.0000 	   40.0000 	   29.3987
    1.4725 	   15.5755 	    1.0000 	   40.0000 	   31.4468
    1.4725 	   16.0833 	    1.0000 	   40.0000 	   33.4779
    1.4267 	   16.5818 	    1.0000 	   40.0000 	   35.4720
    1.8540 	   17.0918 	    1.0000 	   40.0000 	   37.5121
    1.6403 	   17.5870 	    1.0000 	   40.0000 	   39.4932
    1.6709 	   18.0755 	    1.0000 	   40.0000 	   41.4473
    1.7166 	   18.5888 	    1.0000 	   40.0000 	   43.5005
    1.9913 	   19.1045 	    1.0000 	   40.0000 	   45.5626
    2.2049 	   19.6123 	    1.0000 	   40.0000 	   47.5937
    2.1744 	   20.1393 	    1.0000 	   40.0000 	   49.7018
    2.2660 	   20.6513 	    1.0000 	   40.0000 	   51.7499
    2.4033 	   21.1623 	    1.0000 	   40.0000 	   53.7940
    2.4033 	   21.6750 	    1.0000 	   40.0000 	   55.8452
    2.5864 	   22.1863 	    1.0000 	   40.0000 	   57.8903
    2.6169 	   22.7088 	    1.0000 	   40.0000 	   59.9804
    2.7085 	   23.2330 	    1.0000 	   41.0000 	    2.0775
    2.9068 	   23.7740 	    1.0000 	   41.0000 	    4.2406
    2.8916 	   24.3000 	    1.0000 	   41.0000 	    6.3448
    3.0900 	   24.8108 	    1.0000 	   41.0000 	    8.3879
    3.1052 	   25.3368 	    1.0000 	   41.0000 	   10.4920
    3.2731 	   25.8768 	    1.0000 	   41.0000 	   12.6521
    3.3646 	   26.4005 	    1.0000 	   41.0000 	   14.7472
    3.4867 	   26.9300 	    1.0000 	   41.0000 	   16.8654
    3.5630 	   27.4560 	    1.0000 	   41.0000 	   18.9695
    3.7003 	   27.9773 	    1.0000 	   41.0000 	   21.0536
    3.7613 	   28.4980 	    1.0000 	   41.0000 	   23.1367
    3.8682 	   29.0290 	    1.0000 	   41.0000 	   25.2608
    4.0665 	   29.5658 	    1.0000 	   41.0000 	   27.4080
    4.2039 	   30.1155 	    1.0000 	   41.0000 	   29.6071
    4.2649 	   30.6513 	    1.0000 	   41.0000 	   31.7502
    4.4327 	   31.1955 	    1.0000 	   41.0000 	   33.9273
    4.5853 	   31.7330 	    1.0000 	   41.0000 	   36.0775
    4.7990 	   32.2815 	    1.0000 	   41.0000 	   38.2706
    4.8905 	   32.8350 	    1.0000 	   41.0000 	   40.4847
    5.1804 	   33.3830 	    1.0000 	   41.0000 	   42.6768
    5.2873 	   33.9433 	    1.0000 	   41.0000 	   44.9180
    5.1957 	   34.4983 	    1.0000 	   41.0000 	   47.1381
    5.6687 	   35.0525 	    1.0000 	   41.0000 	   49.3552
    5.8671 	   35.6115 	    1.0000 	   41.0000 	   51.5914
    6.1112 	   36.1765 	    1.0000 	   41.0000 	   53.8515
    6.2943 	   36.7460 	    1.0000 	   41.0000 	   56.1286
    6.6606 	   37.3168 	    1.0000 	   41.0000 	   58.4117
    6.8437 	   37.8898 	    1.0000 	   42.0000 	    0.7039
    7.1336 	   38.4578 	    1.0000 	   42.0000 	    2.9760
    7.3930 	   39.0145 	    1.0000 	   42.0000 	    5.2031
    7.7592 	   39.5718 	    1.0000 	   42.0000 	    7.4323
    8.0491 	   40.1365 	    1.0000 	   42.0000 	    9.6914
    8.2322 	   40.7035 	    1.0000 	   42.0000 	   11.9595
    8.5222 	   41.2658 	    1.0000 	   42.0000 	   14.2076
    8.5527 	   41.8303 	    1.0000 	   42.0000 	   16.4658
    8.2017 	   42.4045 	    1.0000 	   42.0000 	   18.7629
    8.1559 	   42.9733 	    1.0000 	   42.0000 	   21.0380
    8.0034 	   43.5498 	    1.0000 	   42.0000 	   23.3442
    8.1102 	   44.1305 	    1.0000 	   42.0000 	   25.6673
    8.0644 	   44.7125 	    1.0000 	   42.0000 	   27.9954
    7.9271 	   45.3025 	    1.0000 	   42.0000 	   30.3556
    7.9728 	   45.8880 	    1.0000 	   42.0000 	   32.6967
    7.5303 	   46.5005 	    1.0000 	   42.0000 	   35.1468
    7.6066 	   47.0938 	    1.0000 	   42.0000 	   37.5200
    7.7287 	   47.6968 	    1.0000 	   42.0000 	   39.9321
    7.7592 	   48.2965 	    1.0000 	   42.0000 	   42.3313
    7.7440 	   48.9153 	    1.0000 	   42.0000 	   44.8064
    7.8050 	   49.5443 	    1.0000 	   42.0000 	   47.3225
    7.5456 	   50.1703 	    1.0000 	   42.0000 	   49.8257
    7.6219 	   50.7988 	    1.0000 	   42.0000 	   52.3398
    7.6219 	   51.4250 	    1.0000 	   42.0000 	   54.8450
    7.6371 	   52.0360 	    1.0000 	   42.0000 	   57.2891
    7.7134 	   52.6545 	    1.0000 	   42.0000 	   59.7633
    7.7440 	   53.2938 	    1.0000 	   43.0000 	    2.3204
    7.6066 	   53.9210 	    1.0000 	   43.0000 	    4.8295
    7.4845 	   54.5520 	    1.0000 	   43.0000 	    7.3527
    7.5761 	   55.1823 	    1.0000 	   43.0000 	    9.8738
    7.4998 	   55.8188 	    1.0000 	   43.0000 	   12.4200
    7.4693 	   56.4585 	    1.0000 	   43.0000 	   14.9791
    6.4775 	   57.0943 	    1.0000 	   43.0000 	   17.5223
    5.8213 	   57.7373 	    1.0000 	   43.0000 	   20.0944
    5.4551 	   58.3955 	    1.0000 	   43.0000 	   22.7276
    4.9058 	   59.0688 	    1.0000 	   43.0000 	   25.4197
    4.6006 	   59.7415 	    1.0000 	   43.0000 	   28.1109
    4.4938 	   60.3930 	    1.0000 	   43.0000 	   30.7170
    4.0208 	   61.0678 	    1.0000 	   43.0000 	   33.4162
    3.9292 	   61.7505 	    1.0000 	   43.0000 	   36.1473
    3.6088 	   62.4370 	    1.0000 	   43.0000 	   38.8935
    3.4562 	   63.1193 	    1.0000 	   43.0000 	   41.6216
    3.2425 	   63.8015 	    1.0000 	   43.0000 	   44.3508
    3.0137 	   64.5000 	    1.0000 	   43.0000 	   47.1450
    2.9679 	   65.1840 	    1.0000 	   43.0000 	   49.8811
    2.8000 	   65.8723 	    1.0000 	   43.0000 	   52.6343
    2.4338 	   66.5620 	    1.0000 	   43.0000 	   55.3934
    2.4796 	   67.2583 	    1.0000 	   43.0000 	   58.1776
    2.3880 	   67.9575 	    1.0000 	   44.0000 	    0.9748
    2.2049 	   68.6648 	    1.0000 	   44.0000 	    3.8039
    2.0981 	   69.3763 	    1.0000 	   44.0000 	    6.6501
    2.0218 	   70.0805 	    1.0000 	   44.0000 	    9.4672
    2.0066 	   70.7848 	    1.0000 	   44.0000 	   12.2844
    1.8387 	   71.4998 	    1.0000 	   44.0000 	   15.1446
    1.7014 	   72.2135 	    1.0000 	   44.0000 	   17.9987
    1.7166 	   72.9390 	    1.0000 	   44.0000 	   20.9009
    1.5640 	   73.6620 	    1.0000 	   44.0000 	   23.7931
    1.6709 	   74.3853 	    1.0000 	   44.0000 	   26.6862
    1.3046 	   75.1028 	    1.0000 	   44.0000 	   29.5564
    1.1673 	   75.8318 	    1.0000 	   44.0000 	   32.4726
    1.0910 	   76.5633 	    1.0000 	   44.0000 	   35.3977
    1.0300 	   77.2963 	    1.0000 	   44.0000 	   38.3299
    0.9537 	   78.0233 	    1.0000 	   44.0000 	   41.2381
    0.8927 	   78.7630 	    1.0000 	   44.0000 	   44.1972
    0.8774 	   79.5108 	    1.0000 	   44.0000 	   47.1884
    0.6180 	   80.2608 	    1.0000 	   44.0000 	   50.1886
    0.5570 	   80.9938 	    1.0000 	   44.0000 	   53.1197
    0.3128 	   81.7240 	    1.0000 	   44.0000 	   56.0409
    0.3281 	   82.4535 	    1.0000 	   44.0000 	   58.9591
    0.1450 	   83.1853 	    1.0000 	   45.0000 	    1.8862
    0.0992 	   83.9190 	    1.0000 	   45.0000 	    4.8214
    0.2518 	   84.6583 	    1.0000 	   45.0000 	    7.7786
    0.0839 	   85.4053 	    1.0000 	   45.0000 	   10.7657
    0.0534 	   86.1595 	    1.0000 	   45.0000 	   13.7829
    0.0534 	   86.9110 	    1.0000 	   45.0000 	   16.7891
    0.0992 	   87.6595 	    1.0000 	   45.0000 	   19.7833
   -0.0687 	   88.4125 	    1.0000 	   45.0000 	   22.7954
    0.1755 	   89.1715 	    1.0000 	   45.0000 	   25.8306
    0.2060 	   89.9438 	    1.0000 	   45.0000 	   28.9198
   -0.0229 	   90.7208 	    1.0000 	   45.0000 	   32.0280
    0.1450 	   91.5058 	    1.0000 	   45.0000 	   35.1681
    0.1602 	   92.3055 	    1.0000 	   45.0000 	   38.3673
   -0.0229 	   93.1045 	    1.0000 	   45.0000 	   41.5635
   -0.0229 	   93.9055 	    1.0000 	   45.0000 	   44.7667
    0.1450 	   94.7155 	    1.0000 	   45.0000 	   48.0069
   -0.0076 	   95.5223 	    1.0000 	   45.0000 	   51.2341
    0.0229 	   96.3180 	    1.0000 	   45.0000 	   54.4172
    0.0381 	   97.1610 	    1.0000 	   45.0000 	   57.7894
    0.1450 	   97.9960 	    1.0000 	   46.0000 	    1.1286
    0.0534 	   98.8038 	    1.0000 	   46.0000 	    4.3598
    0.0076 	   99.6043 	    1.0000 	   46.0000 	    7.5620
    0.0687 	  100.4033 	    1.0000 	   46.0000 	   10.7582
    0.1602 	  100.5885 	    1.0000 	   46.0000 	   11.4992