Folder: Smart-Fabrics/instron/independence/hysterisis/bad_l15w3

File: b_l15w3_40_60_nonstop.txt
Thayer School of Engineering        Instron 4442 Mechanical Testing System
7/5/2018 3:25:48 AM

  Force (N)	Extension (mm)	Not Used	Not Used	Not Used	     Hour	    Minute	    Second
    0.5570 	    1.0220 	    3.0000 	   26.0000 	   26.3322
    0.3891 	    2.2370 	    3.0000 	   26.0000 	   27.5472
    0.4501 	    3.3960 	    3.0000 	   26.0000 	   28.7053
    0.6943 	    4.2410 	    3.0000 	   26.0000 	   29.5503
    0.7858 	    5.0600 	    3.0000 	   26.0000 	   30.3694
    0.6790 	    5.8380 	    3.0000 	   26.0000 	   31.1474
    0.6332 	    6.6040 	    3.0000 	   26.0000 	   31.9135
    0.6943 	    7.4180 	    3.0000 	   26.0000 	   32.7275
    0.8316 	    8.2220 	    3.0000 	   26.0000 	   33.5316
    0.6943 	    8.9870 	    3.0000 	   26.0000 	   34.2966
    0.6485 	    9.7760 	    3.0000 	   26.0000 	   35.0857
    0.7553 	   10.5770 	    3.0000 	   26.0000 	   35.8867
    0.8316 	   11.4060 	    3.0000 	   26.0000 	   36.7158
    0.9079 	   12.2240 	    3.0000 	   26.0000 	   37.5338
    0.8164 	   12.9870 	    3.0000 	   26.0000 	   38.2968
    0.9232 	   13.8060 	    3.0000 	   26.0000 	   39.1159
    0.9232 	   14.6160 	    3.0000 	   26.0000 	   39.9259
    1.0758 	   15.4910 	    3.0000 	   26.0000 	   40.8010
    1.0605 	   16.3380 	    3.0000 	   26.0000 	   41.6480
    1.1521 	   17.1560 	    3.0000 	   26.0000 	   42.4661
    1.1521 	   17.9640 	    3.0000 	   26.0000 	   43.2741
    1.1368 	   18.7710 	    3.0000 	   26.0000 	   44.0812
    1.2284 	   19.5930 	    3.0000 	   26.0000 	   44.9032
    1.1215 	   20.4320 	    3.0000 	   26.0000 	   45.7423
    1.3352 	   21.2810 	    3.0000 	   26.0000 	   46.5903
    1.4267 	   22.1120 	    3.0000 	   26.0000 	   47.4214
    1.4115 	   22.8970 	    3.0000 	   26.0000 	   48.2064
    1.4267 	   23.7190 	    3.0000 	   26.0000 	   49.0285
    1.5030 	   24.5670 	    3.0000 	   26.0000 	   49.8765
    1.6251 	   25.4300 	    3.0000 	   26.0000 	   50.7396
    1.5488 	   26.2710 	    3.0000 	   26.0000 	   51.5806
    1.6861 	   27.1140 	    3.0000 	   26.0000 	   52.4237
    1.8997 	   27.9390 	    3.0000 	   26.0000 	   53.2487
    1.5946 	   28.8230 	    3.0000 	   26.0000 	   54.1327
    1.9455 	   29.6830 	    3.0000 	   26.0000 	   54.9928
    2.1592 	   30.5450 	    3.0000 	   26.0000 	   55.8548
    2.2049 	   31.3840 	    3.0000 	   26.0000 	   56.6939
    2.1439 	   32.2630 	    3.0000 	   26.0000 	   57.5729
    2.3270 	   33.1340 	    3.0000 	   26.0000 	   58.4440
    2.5559 	   33.9820 	    3.0000 	   26.0000 	   59.2920
    2.6474 	   34.8490 	    3.0000 	   27.0000 	    0.1591
    2.5864 	   35.7210 	    3.0000 	   27.0000 	    1.0311
    2.7848 	   36.6060 	    3.0000 	   27.0000 	    1.9162
    2.8611 	   37.5010 	    3.0000 	   27.0000 	    2.8112
    3.0594 	   38.4240 	    3.0000 	   27.0000 	    3.7333
    3.2425 	   39.3210 	    3.0000 	   27.0000 	    4.6303
    3.2273 	   40.2330 	    3.0000 	   27.0000 	    5.5424
    2.7237 	   41.1210 	    3.0000 	   27.0000 	    6.4305
    2.5559 	   42.0080 	    3.0000 	   27.0000 	    7.3175
    2.2202 	   42.8840 	    3.0000 	   27.0000 	    8.1936
    2.1439 	   43.7740 	    3.0000 	   27.0000 	    9.0836
    1.5488 	   44.6630 	    3.0000 	   27.0000 	    9.9727
    1.9303 	   45.5720 	    3.0000 	   27.0000 	   10.8817
    1.3962 	   46.4620 	    3.0000 	   27.0000 	   11.7718
    1.6861 	   47.3700 	    3.0000 	   27.0000 	   12.6798
    1.5335 	   48.2550 	    3.0000 	   27.0000 	   13.5649
    1.5640 	   49.1390 	    3.0000 	   27.0000 	   14.4489
    1.4115 	   50.0330 	    3.0000 	   27.0000 	   15.3430
    1.2589 	   50.9610 	    3.0000 	   27.0000 	   16.2710
    1.1826 	   51.8790 	    3.0000 	   27.0000 	   17.1881
    1.2894 	   52.7860 	    3.0000 	   27.0000 	   18.0961
    1.0452 	   53.7370 	    3.0000 	   27.0000 	   19.0472
    1.1063 	   54.6740 	    3.0000 	   27.0000 	   19.9842
    1.1673 	   55.5730 	    3.0000 	   27.0000 	   20.8833
    1.1063 	   56.4850 	    3.0000 	   27.0000 	   21.7943
    1.0300 	   57.4170 	    3.0000 	   27.0000 	   22.7264
    0.8621 	   58.3450 	    3.0000 	   27.0000 	   23.6544
    0.8164 	   59.2700 	    3.0000 	   27.0000 	   24.5795
    0.8774 	   60.2120 	    3.0000 	   27.0000 	   25.5215
    0.7706 	   61.1490 	    3.0000 	   27.0000 	   26.4586
    0.7858 	   62.1060 	    3.0000 	   27.0000 	   27.4157
    0.8927 	   63.0680 	    3.0000 	   27.0000 	   28.3777
    0.7553 	   64.0240 	    3.0000 	   27.0000 	   29.3338
    0.9995 	   64.9980 	    3.0000 	   27.0000 	   30.3078
    0.7401 	   65.9220 	    3.0000 	   27.0000 	   31.2319
    0.8774 	   66.9540 	    3.0000 	   27.0000 	   32.2639
    0.6332 	   67.9740 	    3.0000 	   27.0000 	   33.2840
    0.8164 	   68.9430 	    3.0000 	   27.0000 	   34.2530
    0.5875 	   69.9150 	    3.0000 	   27.0000 	   35.2251
    0.5875 	   70.8610 	    3.0000 	   27.0000 	   36.1712
    0.6332 	   71.8240 	    3.0000 	   27.0000 	   37.1342
    0.6790 	   72.8110 	    3.0000 	   27.0000 	   38.1213
    0.4501 	   73.8150 	    3.0000 	   27.0000 	   39.1243
    0.4044 	   74.8050 	    3.0000 	   27.0000 	   40.1144
    0.4654 	   75.7550 	    3.0000 	   27.0000 	   41.0644
    0.5112 	   76.7300 	    3.0000 	   27.0000 	   42.0395
    0.4959 	   77.7390 	    3.0000 	   27.0000 	   43.0485
    0.5570 	   78.7490 	    3.0000 	   27.0000 	   44.0586
    0.5112 	   79.7350 	    3.0000 	   27.0000 	   45.0447
    0.3738 	   80.7550 	    3.0000 	   27.0000 	   46.0647
    0.3738 	   81.7610 	    3.0000 	   27.0000 	   47.0708
    0.5875 	   82.7860 	    3.0000 	   27.0000 	   48.0958
    0.6638 	   83.7820 	    3.0000 	   27.0000 	   49.0919
    0.5722 	   84.7630 	    3.0000 	   27.0000 	   50.0729
    0.6485 	   85.7730 	    3.0000 	   27.0000 	   51.0830
    0.3281 	   86.7900 	    3.0000 	   27.0000 	   52.1001
    0.6485 	   87.8120 	    3.0000 	   27.0000 	   53.1221
    0.5722 	   88.8240 	    3.0000 	   27.0000 	   54.1342
    0.6485 	   89.8740 	    3.0000 	   27.0000 	   55.1842
    0.8774 	   90.9280 	    3.0000 	   27.0000 	   56.2373
    0.4196 	   91.9400 	    3.0000 	   27.0000 	   57.2494
    0.8774 	   92.9820 	    3.0000 	   27.0000 	   58.2914
    0.8164 	   94.0240 	    3.0000 	   27.0000 	   59.3335
    0.8469 	   95.0710 	    3.0000 	   28.0000 	    0.3805
    0.9537 	   96.0740 	    3.0000 	   28.0000 	    1.3836
    0.9842 	   97.1220 	    3.0000 	   28.0000 	    2.4317
    1.0758 	   98.1930 	    3.0000 	   28.0000 	    3.5027
    1.0605 	   99.2580 	    3.0000 	   28.0000 	    4.5678
    1.2131 	  100.3340 	    3.0000 	   28.0000 	    5.6438
    1.0300 	  101.3530 	    3.0000 	   28.0000 	    6.6629
    1.1826 	  102.4040 	    3.0000 	   28.0000 	    7.7140
    1.2436 	  103.4430 	    3.0000 	   28.0000 	    8.7530
    1.3657 	  104.4950 	    3.0000 	   28.0000 	    9.8051
    1.4420 	  105.5310 	    3.0000 	   28.0000 	   10.8411
    1.6251 	  106.6110 	    3.0000 	   28.0000 	   11.9212
    1.7472 	  107.6980 	    3.0000 	   28.0000 	   13.0083
    1.7166 	  108.8130 	    3.0000 	   28.0000 	   14.1223
    1.7777 	  109.8780 	    3.0000 	   28.0000 	   15.1874
    1.8235 	  110.9780 	    3.0000 	   28.0000 	   16.2874
    2.0523 	  112.0970 	    3.0000 	   28.0000 	   17.4065
    2.0066 	  113.1710 	    3.0000 	   28.0000 	   18.4806
    2.3117 	  114.2790 	    3.0000 	   28.0000 	   19.5886
    2.3270 	  115.4030 	    3.0000 	   28.0000 	   20.7127
    2.3270 	  116.4930 	    3.0000 	   28.0000 	   21.8028
    2.5559 	  117.5650 	    3.0000 	   28.0000 	   22.8748
    2.7237 	  118.6710 	    3.0000 	   28.0000 	   23.9809
    2.8763 	  119.8050 	    3.0000 	   28.0000 	   25.1150
    3.0137 	  120.9130 	    3.0000 	   28.0000 	   26.2230
    2.9984 	  122.0500 	    3.0000 	   28.0000 	   27.3601
    2.5406 	  123.1870 	    3.0000 	   28.0000 	   28.4971
    2.1286 	  124.3080 	    3.0000 	   28.0000 	   29.6182
    1.9760 	  125.4270 	    3.0000 	   28.0000 	   30.7373
    1.8692 	  126.5370 	    3.0000 	   28.0000 	   31.8463
    1.7624 	  127.6720 	    3.0000 	   28.0000 	   32.9814
    1.6861 	  128.7840 	    3.0000 	   28.0000 	   34.0935
    1.3962 	  129.9390 	    3.0000 	   28.0000 	   35.2485
    1.6098 	  131.1310 	    3.0000 	   28.0000 	   36.4406
    1.2284 	  132.2580 	    3.0000 	   28.0000 	   37.5677
    1.0910 	  133.4030 	    3.0000 	   28.0000 	   38.7127
    1.0452 	  134.5420 	    3.0000 	   28.0000 	   39.8518
    1.1063 	  135.6960 	    3.0000 	   28.0000 	   41.0059
    0.9384 	  136.8230 	    3.0000 	   28.0000 	   42.1329
    0.9232 	  137.9790 	    3.0000 	   28.0000 	   43.2880
    0.9537 	  139.1890 	    3.0000 	   28.0000 	   44.4991
    0.7858 	  140.3870 	    3.0000 	   28.0000 	   45.6971
    0.7553 	  141.5580 	    3.0000 	   28.0000 	   46.8682
    0.9384 	  142.7310 	    3.0000 	   28.0000 	   48.0413
    0.7553 	  143.9050 	    3.0000 	   28.0000 	   49.2143
    0.5875 	  145.0830 	    3.0000 	   28.0000 	   50.3924
    0.7706 	  146.2750 	    3.0000 	   28.0000 	   51.5845
    0.6180 	  147.4600 	    3.0000 	   28.0000 	   52.7695
    0.6790 	  148.6770 	    3.0000 	   28.0000 	   53.9866
    0.6638 	  149.8410 	    3.0000 	   28.0000 	   55.1507
    0.5417 	  151.0260 	    3.0000 	   28.0000 	   56.3357
    0.5112 	  152.2370 	    3.0000 	   28.0000 	   57.5468
    0.5875 	  153.4540 	    3.0000 	   28.0000 	   58.7639
    0.6027 	  154.6310 	    3.0000 	   28.0000 	   59.9409
    0.4349 	  155.8480 	    3.0000 	   29.0000 	    1.1580
    0.6180 	  157.0660 	    3.0000 	   29.0000 	    2.3761
    0.5417 	  158.2760 	    3.0000 	   29.0000 	    3.5862
    0.5264 	  159.4760 	    3.0000 	   29.0000 	    4.7862
    0.4654 	  160.6990 	    3.0000 	   29.0000 	    6.0093
    0.5875 	  161.9240 	    3.0000 	   29.0000 	    7.2334
    0.3433 	  163.1460 	    3.0000 	   29.0000 	    8.4554
    0.4349 	  163.2410 	    3.0000 	   29.0000 	    8.5504

File: bad_l15w3_40_30_nonstop.txt
Thayer School of Engineering        Instron 4442 Mechanical Testing System
7/4/2018 10:36:11 PM

  Force (N)	Extension (mm)	Not Used	Not Used	Not Used	     Hour	    Minute	    Second
    0.2823 	    0.5115 	   22.0000 	   36.0000 	   46.1531
    0.4196 	    1.1250 	   22.0000 	   36.0000 	   47.3801
    0.3586 	    1.6850 	   22.0000 	   36.0000 	   48.5002
    0.2823 	    2.0820 	   22.0000 	   36.0000 	   49.2943
    0.4654 	    2.4845 	   22.0000 	   36.0000 	   50.0993
    0.5264 	    2.8905 	   22.0000 	   36.0000 	   50.9113
    0.4044 	    3.2720 	   22.0000 	   36.0000 	   51.6734
    0.0229 	    3.6485 	   22.0000 	   36.0000 	   52.4264
    0.4959 	    4.0295 	   22.0000 	   36.0000 	   53.1885
    0.3586 	    4.4070 	   22.0000 	   36.0000 	   53.9435
    0.3433 	    4.7855 	   22.0000 	   36.0000 	   54.7006
    0.4196 	    5.1675 	   22.0000 	   36.0000 	   55.4646
    0.5112 	    5.5665 	   22.0000 	   36.0000 	   56.2626
    0.4959 	    5.9500 	   22.0000 	   36.0000 	   57.0287
    0.3891 	    6.3405 	   22.0000 	   36.0000 	   57.8107
    0.5264 	    6.7280 	   22.0000 	   36.0000 	   58.5858
    0.5112 	    7.1245 	   22.0000 	   36.0000 	   59.3788
    0.4807 	    7.5155 	   22.0000 	   37.0000 	    0.1609
    0.3586 	    7.9145 	   22.0000 	   37.0000 	    0.9589
    0.5264 	    8.3095 	   22.0000 	   37.0000 	    1.7490
    0.4959 	    8.6815 	   22.0000 	   37.0000 	    2.4930
    0.3738 	    9.0865 	   22.0000 	   37.0000 	    3.3031
    0.5570 	    9.4860 	   22.0000 	   37.0000 	    4.1021
    0.4501 	    9.8875 	   22.0000 	   37.0000 	    4.9051
    0.5112 	   10.2950 	   22.0000 	   37.0000 	    5.7202
    0.5722 	   10.6835 	   22.0000 	   37.0000 	    6.4972
    0.4196 	   11.0875 	   22.0000 	   37.0000 	    7.3053
    0.5875 	   11.4895 	   22.0000 	   37.0000 	    8.1093
    0.5570 	   11.9060 	   22.0000 	   37.0000 	    8.9424
    0.5417 	   12.2970 	   22.0000 	   37.0000 	    9.7234
    0.6180 	   12.6705 	   22.0000 	   37.0000 	   10.4705
    0.5112 	   13.0715 	   22.0000 	   37.0000 	   11.2725
    0.5417 	   13.4855 	   22.0000 	   37.0000 	   12.1006
    0.6790 	   13.9140 	   22.0000 	   37.0000 	   12.9576
    0.6943 	   14.3420 	   22.0000 	   37.0000 	   13.8137
    0.7401 	   14.7450 	   22.0000 	   37.0000 	   14.6197
    0.6790 	   15.1350 	   22.0000 	   37.0000 	   15.3997
    0.7401 	   15.5475 	   22.0000 	   37.0000 	   16.2248
    0.6485 	   15.9775 	   22.0000 	   37.0000 	   17.0848
    0.6332 	   16.3835 	   22.0000 	   37.0000 	   17.8969
    0.6027 	   16.7710 	   22.0000 	   37.0000 	   18.6719
    0.7858 	   17.1880 	   22.0000 	   37.0000 	   19.5060
    0.5264 	   17.6270 	   22.0000 	   37.0000 	   20.3840
    0.2365 	   18.0515 	   22.0000 	   37.0000 	   21.2331
    0.5722 	   18.4485 	   22.0000 	   37.0000 	   22.0271
    0.8621 	   18.8650 	   22.0000 	   37.0000 	   22.8602
    0.7553 	   19.2815 	   22.0000 	   37.0000 	   23.6932
    0.3738 	   19.7095 	   22.0000 	   37.0000 	   24.5493
    0.6332 	   20.1290 	   22.0000 	   37.0000 	   25.3883
    0.8011 	   20.5310 	   22.0000 	   37.0000 	   26.1924
    0.8469 	   20.9770 	   22.0000 	   37.0000 	   27.0834
    0.7858 	   21.4130 	   22.0000 	   37.0000 	   27.9555
    0.7095 	   21.8480 	   22.0000 	   37.0000 	   28.8255
    0.7553 	   22.2635 	   22.0000 	   37.0000 	   29.6566
    0.9232 	   22.7020 	   22.0000 	   37.0000 	   30.5336
    0.8011 	   23.1580 	   22.0000 	   37.0000 	   31.4457
    0.9079 	   23.6140 	   22.0000 	   37.0000 	   32.3577
    0.9995 	   24.0675 	   22.0000 	   37.0000 	   33.2648
    1.1368 	   24.5140 	   22.0000 	   37.0000 	   34.1578
    1.0300 	   24.9350 	   22.0000 	   37.0000 	   34.9999
    1.0300 	   25.3560 	   22.0000 	   37.0000 	   35.8419
    1.0758 	   25.8030 	   22.0000 	   37.0000 	   36.7360
    0.8927 	   26.2485 	   22.0000 	   37.0000 	   37.6270
    1.2131 	   26.7125 	   22.0000 	   37.0000 	   38.5551
    1.2131 	   27.1500 	   22.0000 	   37.0000 	   39.4301
    1.1368 	   27.6070 	   22.0000 	   37.0000 	   40.3442
    1.1063 	   28.0440 	   22.0000 	   37.0000 	   41.2182
    1.1215 	   28.5165 	   22.0000 	   37.0000 	   42.1633
    1.3657 	   28.9850 	   22.0000 	   37.0000 	   43.1003
    0.8927 	   29.4460 	   22.0000 	   37.0000 	   44.0224
    1.0758 	   29.8925 	   22.0000 	   37.0000 	   44.9144
    1.2741 	   30.3370 	   22.0000 	   37.0000 	   45.8035
    1.3352 	   30.8015 	   22.0000 	   37.0000 	   46.7325
    1.3504 	   31.2715 	   22.0000 	   37.0000 	   47.6726
    1.5335 	   31.7410 	   22.0000 	   37.0000 	   48.6116
    1.4420 	   32.2095 	   22.0000 	   37.0000 	   49.5487
    1.5946 	   32.6865 	   22.0000 	   37.0000 	   50.5028
    1.3352 	   33.1685 	   22.0000 	   37.0000 	   51.4668
    1.5946 	   33.6030 	   22.0000 	   37.0000 	   52.3359
    1.6556 	   34.0565 	   22.0000 	   37.0000 	   53.2429
    1.7166 	   34.5220 	   22.0000 	   37.0000 	   54.1740
    1.7624 	   34.9730 	   22.0000 	   37.0000 	   55.0760
    1.7929 	   35.4565 	   22.0000 	   37.0000 	   56.0431
    1.7166 	   35.9265 	   22.0000 	   37.0000 	   56.9831
    1.8387 	   36.4020 	   22.0000 	   37.0000 	   57.9342
    1.8845 	   36.8830 	   22.0000 	   37.0000 	   58.8952
    1.5030 	   37.3585 	   22.0000 	   37.0000 	   59.8473
    2.0218 	   37.8345 	   22.0000 	   38.0000 	    0.7993
    1.9760 	   38.3205 	   22.0000 	   38.0000 	    1.7714
    1.9608 	   38.8070 	   22.0000 	   38.0000 	    2.7435
    2.0676 	   39.2960 	   22.0000 	   38.0000 	    3.7215
    2.1134 	   39.7515 	   22.0000 	   38.0000 	    4.6326
    1.9913 	   40.2080 	   22.0000 	   38.0000 	    5.5456
    1.7624 	   40.6945 	   22.0000 	   38.0000 	    6.5187
    1.6403 	   41.1805 	   22.0000 	   38.0000 	    7.4907
    1.6251 	   41.6710 	   22.0000 	   38.0000 	    8.4718
    1.6251 	   42.1655 	   22.0000 	   38.0000 	    9.4608
    1.3504 	   42.6400 	   22.0000 	   38.0000 	   10.4099
    1.2741 	   43.1275 	   22.0000 	   38.0000 	   11.3849
    1.3199 	   43.6065 	   22.0000 	   38.0000 	   12.3430
    1.1521 	   44.0805 	   22.0000 	   38.0000 	   13.2911
    1.2284 	   44.5500 	   22.0000 	   38.0000 	   14.2301
    1.1978 	   45.0295 	   22.0000 	   38.0000 	   15.1892
    1.0300 	   45.5255 	   22.0000 	   38.0000 	   16.1812
    1.2131 	   46.0175 	   22.0000 	   38.0000 	   17.1653
    1.0300 	   46.5275 	   22.0000 	   38.0000 	   18.1853
    0.7248 	   47.0340 	   22.0000 	   38.0000 	   19.1984
    0.8774 	   47.5155 	   22.0000 	   38.0000 	   20.1604
    0.8621 	   48.0235 	   22.0000 	   38.0000 	   21.1765
    0.9384 	   48.5375 	   22.0000 	   38.0000 	   22.2046
    1.0452 	   49.0300 	   22.0000 	   38.0000 	   23.1896
    0.8011 	   49.5035 	   22.0000 	   38.0000 	   24.1367
    0.6790 	   49.9905 	   22.0000 	   38.0000 	   25.1107
    0.8164 	   50.4690 	   22.0000 	   38.0000 	   26.0678
    0.6638 	   50.9725 	   22.0000 	   38.0000 	   27.0748
    0.8011 	   51.4825 	   22.0000 	   38.0000 	   28.0949
    0.7706 	   51.9830 	   22.0000 	   38.0000 	   29.0960
    0.6790 	   52.4955 	   22.0000 	   38.0000 	   30.1210
    0.6485 	   53.0025 	   22.0000 	   38.0000 	   31.1351
    0.6943 	   53.5070 	   22.0000 	   38.0000 	   32.1441
    0.6943 	   54.0280 	   22.0000 	   38.0000 	   33.1862
    0.5112 	   54.5630 	   22.0000 	   38.0000 	   34.2563
    0.6485 	   55.0805 	   22.0000 	   38.0000 	   35.2913
    0.6027 	   55.5810 	   22.0000 	   38.0000 	   36.2924
    0.6943 	   56.1035 	   22.0000 	   38.0000 	   37.3364
    0.2976 	   56.6270 	   22.0000 	   38.0000 	   38.3835
    0.5875 	   57.1345 	   22.0000 	   38.0000 	   39.3985
    0.3281 	   57.6295 	   22.0000 	   38.0000 	   40.3886
    0.4654 	   58.1820 	   22.0000 	   38.0000 	   41.4937
    0.5722 	   58.6915 	   22.0000 	   38.0000 	   42.5127
    0.5112 	   59.2125 	   22.0000 	   38.0000 	   43.5548
    0.5417 	   59.7270 	   22.0000 	   38.0000 	   44.5838
    0.5264 	   60.2575 	   22.0000 	   38.0000 	   45.6449
    0.6638 	   60.7760 	   22.0000 	   38.0000 	   46.6820
    0.4959 	   61.3125 	   22.0000 	   38.0000 	   47.7550
    0.6332 	   61.8600 	   22.0000 	   38.0000 	   48.8501
    0.5264 	   62.4065 	   22.0000 	   38.0000 	   49.9431
    0.4501 	   62.9350 	   22.0000 	   38.0000 	   51.0002
    0.4196 	   63.4880 	   22.0000 	   38.0000 	   52.1063
    0.1450 	   64.0375 	   22.0000 	   38.0000 	   53.2053
    0.4959 	   64.5730 	   22.0000 	   38.0000 	   54.2764
    0.5264 	   65.1190 	   22.0000 	   38.0000 	   55.3675
    0.3891 	   65.6530 	   22.0000 	   38.0000 	   56.4355
    0.4654 	   66.1970 	   22.0000 	   38.0000 	   57.5236
    0.4959 	   66.7385 	   22.0000 	   38.0000 	   58.6066
    0.4501 	   67.2790 	   22.0000 	   38.0000 	   59.6877
    0.4196 	   67.8375 	   22.0000 	   39.0000 	    0.8048
    0.1907 	   68.4050 	   22.0000 	   39.0000 	    1.9398
    0.1450 	   68.9635 	   22.0000 	   39.0000 	    3.0569
    0.3128 	   69.5155 	   22.0000 	   39.0000 	    4.1610
    0.3281 	   70.0750 	   22.0000 	   39.0000 	    5.2800
    0.3433 	   70.6060 	   22.0000 	   39.0000 	    6.3421
    0.3128 	   71.1685 	   22.0000 	   39.0000 	    7.4672
    0.2213 	   71.7015 	   22.0000 	   39.0000 	    8.5332
    0.4044 	   72.2755 	   22.0000 	   39.0000 	    9.6813
    0.2976 	   72.8190 	   22.0000 	   39.0000 	   10.7683
    0.2670 	   73.3900 	   22.0000 	   39.0000 	   11.9094
    0.2365 	   73.9330 	   22.0000 	   39.0000 	   12.9955
    0.4349 	   74.4940 	   22.0000 	   39.0000 	   14.1175
    0.4044 	   75.0595 	   22.0000 	   39.0000 	   15.2486
    0.2670 	   75.6160 	   22.0000 	   39.0000 	   16.3617
    0.2060 	   76.1890 	   22.0000 	   39.0000 	   17.5077
    0.3738 	   76.7645 	   22.0000 	   39.0000 	   18.6578
    0.2213 	   77.3445 	   22.0000 	   39.0000 	   19.8189
    0.0534 	   77.9040 	   22.0000 	   39.0000 	   20.9379
    0.2976 	   78.4890 	   22.0000 	   39.0000 	   22.1080
    0.2060 	   79.0640 	   22.0000 	   39.0000 	   23.2581
    0.2823 	   79.6115 	   22.0000 	   39.0000 	   24.3531
    0.1907 	   80.2000 	   22.0000 	   39.0000 	   25.5302
    0.1755 	   80.2905 	   22.0000 	   39.0000 	   25.7112