Folder: Smart-Fabrics/instron/independence/hysterisis/bad_l15w3_pre10

File: b_l15w3_40_60_pre10_nonstop.txt
Thayer School of Engineering        Instron 4442 Mechanical Testing System
7/5/2018 3:48:53 AM

  Force (N)	Extension (mm)	Not Used	Not Used	Not Used	     Hour	    Minute	    Second
    1.0147 	    1.0280 	    3.0000 	   49.0000 	    3.1848
    1.2894 	    1.9470 	    3.0000 	   49.0000 	    4.1038
    1.3046 	    2.8690 	    3.0000 	   49.0000 	    5.0259
    1.2284 	    3.6830 	    3.0000 	   49.0000 	    5.8399
    1.2741 	    4.3800 	    3.0000 	   49.0000 	    6.5370
    1.1215 	    5.0200 	    3.0000 	   49.0000 	    7.1770
    1.3657 	    5.6280 	    3.0000 	   49.0000 	    7.7850
    1.5488 	    6.2830 	    3.0000 	   49.0000 	    8.4401
    1.6251 	    6.8440 	    3.0000 	   49.0000 	    9.0011
    1.7777 	    7.4560 	    3.0000 	   49.0000 	    9.6131
    1.5946 	    8.0150 	    3.0000 	   49.0000 	   10.1722
    1.8845 	    8.6100 	    3.0000 	   49.0000 	   10.7672
    1.7472 	    9.1870 	    3.0000 	   49.0000 	   11.3442
    1.8082 	    9.7750 	    3.0000 	   49.0000 	   11.9323
    1.6251 	   10.4060 	    3.0000 	   49.0000 	   12.5633
    2.1134 	   11.0300 	    3.0000 	   49.0000 	   13.1873
    2.0218 	   11.6440 	    3.0000 	   49.0000 	   13.8014
    2.1439 	   12.2550 	    3.0000 	   49.0000 	   14.4124
    2.2202 	   12.8980 	    3.0000 	   49.0000 	   15.0554
    2.2660 	   13.4800 	    3.0000 	   49.0000 	   15.6375
    2.3575 	   14.1360 	    3.0000 	   49.0000 	   16.2935
    2.4033 	   14.8120 	    3.0000 	   49.0000 	   16.9696
    2.2354 	   15.4560 	    3.0000 	   49.0000 	   17.6126
    2.7237 	   16.1200 	    3.0000 	   49.0000 	   18.2766
    2.7848 	   16.7330 	    3.0000 	   49.0000 	   18.8897
    2.8458 	   17.3880 	    3.0000 	   49.0000 	   19.5447
    2.8611 	   18.0010 	    3.0000 	   49.0000 	   20.1577
    3.0747 	   18.6490 	    3.0000 	   49.0000 	   20.8058
    3.1357 	   19.2910 	    3.0000 	   49.0000 	   21.4478
    3.1815 	   19.9470 	    3.0000 	   49.0000 	   22.1038
    3.1968 	   20.6070 	    3.0000 	   49.0000 	   22.7639
    3.4562 	   21.2530 	    3.0000 	   49.0000 	   23.4099
    3.5019 	   21.8430 	    3.0000 	   49.0000 	   24.0000
    3.5782 	   22.4580 	    3.0000 	   49.0000 	   24.6150
    3.6545 	   23.1330 	    3.0000 	   49.0000 	   25.2900
    3.8071 	   23.7540 	    3.0000 	   49.0000 	   25.9111
    3.9445 	   24.4210 	    3.0000 	   49.0000 	   26.5781
    4.0208 	   25.0650 	    3.0000 	   49.0000 	   27.2221
    4.0818 	   25.6820 	    3.0000 	   49.0000 	   27.8392
    4.1581 	   26.3510 	    3.0000 	   49.0000 	   28.5082
    4.3412 	   26.9510 	    3.0000 	   49.0000 	   29.1082
    4.3412 	   27.5890 	    3.0000 	   49.0000 	   29.7463
    4.4327 	   28.2560 	    3.0000 	   49.0000 	   30.4133
    4.5090 	   28.8720 	    3.0000 	   49.0000 	   31.0294
    4.5701 	   29.5020 	    3.0000 	   49.0000 	   31.6594
    4.7837 	   30.1390 	    3.0000 	   49.0000 	   32.2964
    4.2802 	   30.7720 	    3.0000 	   49.0000 	   32.9295
    3.7766 	   31.4310 	    3.0000 	   49.0000 	   33.5885
    3.2731 	   32.0270 	    3.0000 	   49.0000 	   34.1845
    3.5172 	   32.6470 	    3.0000 	   49.0000 	   34.8036
    3.0747 	   33.3260 	    3.0000 	   49.0000 	   35.4826
    2.8916 	   33.9680 	    3.0000 	   49.0000 	   36.1246
    2.8611 	   34.6110 	    3.0000 	   49.0000 	   36.7677
    2.6474 	   35.2300 	    3.0000 	   49.0000 	   37.3867
    2.5101 	   35.8710 	    3.0000 	   49.0000 	   38.0278
    2.3880 	   36.5280 	    3.0000 	   49.0000 	   38.6848
    2.1744 	   37.1780 	    3.0000 	   49.0000 	   39.3348
    2.2049 	   37.8070 	    3.0000 	   49.0000 	   39.9639
    2.1897 	   38.4500 	    3.0000 	   49.0000 	   40.6069
    1.9608 	   39.1200 	    3.0000 	   49.0000 	   41.2769
    1.8997 	   39.7580 	    3.0000 	   49.0000 	   41.9150
    1.6251 	   40.4500 	    3.0000 	   49.0000 	   42.6070
    1.8235 	   41.1290 	    3.0000 	   49.0000 	   43.2861
    1.6098 	   41.8010 	    3.0000 	   49.0000 	   43.9581
    1.6709 	   42.4970 	    3.0000 	   49.0000 	   44.6541
    1.5183 	   43.1840 	    3.0000 	   49.0000 	   45.3412
    1.5183 	   43.8570 	    3.0000 	   49.0000 	   46.0142
    1.4420 	   44.5510 	    3.0000 	   49.0000 	   46.7083
    1.3352 	   45.2530 	    3.0000 	   49.0000 	   47.4103
    1.3504 	   45.9400 	    3.0000 	   49.0000 	   48.0973
    1.3199 	   46.6290 	    3.0000 	   49.0000 	   48.7864
    1.2436 	   47.3470 	    3.0000 	   49.0000 	   49.5044
    1.1978 	   48.0450 	    3.0000 	   49.0000 	   50.2025
    1.1215 	   48.7330 	    3.0000 	   49.0000 	   50.8905
    1.1521 	   49.4160 	    3.0000 	   49.0000 	   51.5735
    1.2284 	   50.1250 	    3.0000 	   49.0000 	   52.2816
    1.0605 	   50.8280 	    3.0000 	   49.0000 	   52.9846
    1.0147 	   51.5550 	    3.0000 	   49.0000 	   53.7117
    0.9995 	   52.2770 	    3.0000 	   49.0000 	   54.4337
    0.9842 	   52.9790 	    3.0000 	   49.0000 	   55.1357
    0.9537 	   53.6870 	    3.0000 	   49.0000 	   55.8438
    0.8011 	   54.3540 	    3.0000 	   49.0000 	   56.5108
    0.8011 	   55.0400 	    3.0000 	   49.0000 	   57.1969
    0.8621 	   55.7450 	    3.0000 	   49.0000 	   57.9019
    0.8316 	   56.4610 	    3.0000 	   49.0000 	   58.6179
    0.8164 	   57.1720 	    3.0000 	   49.0000 	   59.3290
    0.8469 	   57.8790 	    3.0000 	   50.0000 	    0.0360
    0.8774 	   58.6260 	    3.0000 	   50.0000 	    0.7821
    0.8011 	   59.3800 	    3.0000 	   50.0000 	    1.5371
    0.8469 	   60.1200 	    3.0000 	   50.0000 	    2.2771
    0.8164 	   60.8640 	    3.0000 	   50.0000 	    3.0212
    0.8469 	   61.6250 	    3.0000 	   50.0000 	    3.7822
    0.8774 	   62.3550 	    3.0000 	   50.0000 	    4.5123
    0.9079 	   63.0980 	    3.0000 	   50.0000 	    5.2553
    0.7706 	   63.8380 	    3.0000 	   50.0000 	    5.9954
    0.9384 	   64.5910 	    3.0000 	   50.0000 	    6.7484
    1.1063 	   65.3180 	    3.0000 	   50.0000 	    7.4754
    1.1978 	   66.0520 	    3.0000 	   50.0000 	    8.2095
    1.2284 	   66.7660 	    3.0000 	   50.0000 	    8.9235
    1.2741 	   67.5070 	    3.0000 	   50.0000 	    9.6646
    1.1978 	   68.2340 	    3.0000 	   50.0000 	   10.3906
    1.3352 	   68.9780 	    3.0000 	   50.0000 	   11.1347
    1.3657 	   69.7320 	    3.0000 	   50.0000 	   11.8887
    1.3962 	   70.5180 	    3.0000 	   50.0000 	   12.6747
    1.3657 	   71.2690 	    3.0000 	   50.0000 	   13.4258
    1.2589 	   72.0090 	    3.0000 	   50.0000 	   14.1658
    1.5946 	   72.7730 	    3.0000 	   50.0000 	   14.9299
    1.7014 	   73.5340 	    3.0000 	   50.0000 	   15.6909
    1.7014 	   74.2740 	    3.0000 	   50.0000 	   16.4310
    1.9150 	   75.0010 	    3.0000 	   50.0000 	   17.1580
    2.0829 	   75.7720 	    3.0000 	   50.0000 	   17.9290
    1.8845 	   76.5470 	    3.0000 	   50.0000 	   18.7041
    1.9608 	   77.3300 	    3.0000 	   50.0000 	   19.4871
    2.1897 	   78.0710 	    3.0000 	   50.0000 	   20.2282
    2.1134 	   78.8450 	    3.0000 	   50.0000 	   21.0022
    2.3728 	   79.6350 	    3.0000 	   50.0000 	   21.7923
    2.4338 	   80.4140 	    3.0000 	   50.0000 	   22.5713
    2.5559 	   81.1880 	    3.0000 	   50.0000 	   23.3454
    2.6322 	   81.9600 	    3.0000 	   50.0000 	   24.1174
    2.8305 	   82.7600 	    3.0000 	   50.0000 	   24.9174
    2.8916 	   83.5630 	    3.0000 	   50.0000 	   25.7205
    2.9984 	   84.3310 	    3.0000 	   50.0000 	   26.4885
    3.0442 	   85.1150 	    3.0000 	   50.0000 	   27.2716
    3.1357 	   85.8820 	    3.0000 	   50.0000 	   28.0386
    3.3341 	   86.6740 	    3.0000 	   50.0000 	   28.8307
    3.5019 	   87.4550 	    3.0000 	   50.0000 	   29.6117
    3.5477 	   88.2340 	    3.0000 	   50.0000 	   30.3908
    3.9292 	   89.0140 	    3.0000 	   50.0000 	   31.1708
    3.9597 	   89.7800 	    3.0000 	   50.0000 	   31.9368
    4.0055 	   90.5420 	    3.0000 	   50.0000 	   32.6989
    4.1581 	   91.3280 	    3.0000 	   50.0000 	   33.4849
    4.4022 	   92.1330 	    3.0000 	   50.0000 	   34.2900
    4.1428 	   92.9480 	    3.0000 	   50.0000 	   35.1050
    3.5935 	   93.7760 	    3.0000 	   50.0000 	   35.9331
    3.3494 	   94.6000 	    3.0000 	   50.0000 	   36.7571
    3.0137 	   95.3880 	    3.0000 	   50.0000 	   37.5452
    2.8153 	   96.1780 	    3.0000 	   50.0000 	   38.3352
    2.5711 	   96.9570 	    3.0000 	   50.0000 	   39.1143
    2.4948 	   97.7560 	    3.0000 	   50.0000 	   39.9133
    2.2507 	   98.5740 	    3.0000 	   50.0000 	   40.7303
    2.1134 	   99.3810 	    3.0000 	   50.0000 	   41.5384
    1.9760 	  100.2020 	    3.0000 	   50.0000 	   42.3594
    1.9760 	  101.0210 	    3.0000 	   50.0000 	   43.1785
    1.8997 	  101.8310 	    3.0000 	   50.0000 	   43.9885
    1.8082 	  102.6490 	    3.0000 	   50.0000 	   44.8056
    1.6861 	  103.4710 	    3.0000 	   50.0000 	   45.6276
    1.6098 	  104.2890 	    3.0000 	   50.0000 	   46.4457
    1.2741 	  105.1240 	    3.0000 	   50.0000 	   47.2807
    1.2436 	  105.9660 	    3.0000 	   50.0000 	   48.1228
    1.4420 	  106.8390 	    3.0000 	   50.0000 	   48.9958
    1.1521 	  107.6790 	    3.0000 	   50.0000 	   49.8359
    1.3809 	  108.5030 	    3.0000 	   50.0000 	   50.6599
    0.8927 	  109.3490 	    3.0000 	   50.0000 	   51.5060
    1.1063 	  110.1970 	    3.0000 	   50.0000 	   52.3540
    1.0605 	  111.0060 	    3.0000 	   50.0000 	   53.1631
    1.2436 	  111.8400 	    3.0000 	   50.0000 	   53.9971
    1.0452 	  112.6830 	    3.0000 	   50.0000 	   54.8402
    0.9384 	  113.5170 	    3.0000 	   50.0000 	   55.6742
    0.9384 	  114.3540 	    3.0000 	   50.0000 	   56.5112
    0.8621 	  115.1910 	    3.0000 	   50.0000 	   57.3483
    0.8011 	  116.0160 	    3.0000 	   50.0000 	   58.1733
    0.8316 	  116.8550 	    3.0000 	   50.0000 	   59.0124
    0.7858 	  117.7050 	    3.0000 	   50.0000 	   59.8624
    0.7858 	  118.5200 	    3.0000 	   51.0000 	    0.6775
    0.7401 	  119.3690 	    3.0000 	   51.0000 	    1.5265
    0.8011 	  120.2280 	    3.0000 	   51.0000 	    2.3846
    0.7858 	  121.0610 	    3.0000 	   51.0000 	    3.2176
    0.8621 	  121.9190 	    3.0000 	   51.0000 	    4.0757
    0.6638 	  122.7830 	    3.0000 	   51.0000 	    4.9397
    0.7248 	  123.6070 	    3.0000 	   51.0000 	    5.7638
    0.6485 	  123.6950 	    3.0000 	   51.0000 	    5.8518