Folder: Smart-Fabrics/instron/independence/hysterisis/bad_l15w3_pre5

File: b_l15w3_25_60_pre5_nonstop.txt
Thayer School of Engineering        Instron 4442 Mechanical Testing System
7/5/2018 5:31:22 AM

  Force (N)	Extension (mm)	Not Used	Not Used	Not Used	     Hour	    Minute	    Second
    0.8927 	    1.0280 	    5.0000 	   31.0000 	   44.8622
    0.7858 	    2.1600 	    5.0000 	   31.0000 	   45.9943
    0.7401 	    3.2450 	    5.0000 	   31.0000 	   47.0793
    0.9689 	    3.9490 	    5.0000 	   31.0000 	   47.7824
    0.7858 	    4.6740 	    5.0000 	   31.0000 	   48.5074
    1.0910 	    5.4200 	    5.0000 	   31.0000 	   49.2534
    0.8469 	    6.0970 	    5.0000 	   31.0000 	   49.9305
    0.9232 	    6.7850 	    5.0000 	   31.0000 	   50.6185
    1.0452 	    7.5060 	    5.0000 	   31.0000 	   51.3396
    1.0300 	    8.1950 	    5.0000 	   31.0000 	   52.0286
    1.1215 	    8.9010 	    5.0000 	   31.0000 	   52.7346
    1.0758 	    9.6070 	    5.0000 	   31.0000 	   53.4407
    1.1673 	   10.3040 	    5.0000 	   31.0000 	   54.1377
    1.2284 	   11.0040 	    5.0000 	   31.0000 	   54.8378
    1.2436 	   11.7420 	    5.0000 	   31.0000 	   55.5758
    1.2894 	   12.4740 	    5.0000 	   31.0000 	   56.3078
    1.2284 	   13.1880 	    5.0000 	   31.0000 	   57.0219
    1.4725 	   13.8860 	    5.0000 	   31.0000 	   57.7199
    1.6556 	   14.6180 	    5.0000 	   31.0000 	   58.4520
    1.4267 	   15.3380 	    5.0000 	   31.0000 	   59.1720
    1.5335 	   16.0610 	    5.0000 	   31.0000 	   59.8951
    1.8082 	   16.8030 	    5.0000 	   32.0000 	    0.6371
    1.7777 	   17.5400 	    5.0000 	   32.0000 	    1.3741
    1.8692 	   18.2590 	    5.0000 	   32.0000 	    2.0932
    1.8082 	   18.9860 	    5.0000 	   32.0000 	    2.8202
    1.9913 	   19.7350 	    5.0000 	   32.0000 	    3.5693
    2.0066 	   20.4710 	    5.0000 	   32.0000 	    4.3053
    2.0371 	   21.1740 	    5.0000 	   32.0000 	    5.0063
    2.0981 	   21.9230 	    5.0000 	   32.0000 	    5.7564
    2.2660 	   22.6930 	    5.0000 	   32.0000 	    6.5264
    2.3423 	   23.4440 	    5.0000 	   32.0000 	    7.2775
    2.2965 	   24.1790 	    5.0000 	   32.0000 	    8.0125
    2.1439 	   24.9190 	    5.0000 	   32.0000 	    8.7526
    2.4186 	   25.6640 	    5.0000 	   32.0000 	    9.4976
    2.5711 	   26.4120 	    5.0000 	   32.0000 	   10.2456
    2.5406 	   27.1610 	    5.0000 	   32.0000 	   10.9947
    2.8305 	   27.9150 	    5.0000 	   32.0000 	   11.7487
    2.8763 	   28.6290 	    5.0000 	   32.0000 	   12.4628
    2.9679 	   29.3860 	    5.0000 	   32.0000 	   13.2198
    3.2120 	   30.1430 	    5.0000 	   32.0000 	   13.9769
    3.3036 	   30.8750 	    5.0000 	   32.0000 	   14.7089
    3.3188 	   31.6460 	    5.0000 	   32.0000 	   15.4799
    3.5935 	   32.4070 	    5.0000 	   32.0000 	   16.2410
    3.6545 	   33.1410 	    5.0000 	   32.0000 	   16.9750
    3.9292 	   33.8750 	    5.0000 	   32.0000 	   17.7091
    4.0055 	   34.6510 	    5.0000 	   32.0000 	   18.4851
    4.0208 	   35.4100 	    5.0000 	   32.0000 	   19.2442
    3.4257 	   36.1750 	    5.0000 	   32.0000 	   20.0092
    3.2883 	   36.9130 	    5.0000 	   32.0000 	   20.7472
    2.9374 	   37.6990 	    5.0000 	   32.0000 	   21.5333
    2.8305 	   38.4540 	    5.0000 	   32.0000 	   22.2873
    2.4796 	   39.2160 	    5.0000 	   32.0000 	   23.0494
    2.3728 	   39.9730 	    5.0000 	   32.0000 	   23.8064
    2.2812 	   40.7410 	    5.0000 	   32.0000 	   24.5745
    2.1286 	   41.5300 	    5.0000 	   32.0000 	   25.3635
    1.9303 	   42.3120 	    5.0000 	   32.0000 	   26.1456
    1.9913 	   43.0840 	    5.0000 	   32.0000 	   26.9176
    1.7929 	   43.8800 	    5.0000 	   32.0000 	   27.7136
    1.6403 	   44.6850 	    5.0000 	   32.0000 	   28.5187
    1.6403 	   45.4770 	    5.0000 	   32.0000 	   29.3107
    1.5946 	   46.2760 	    5.0000 	   32.0000 	   30.1098
    1.3962 	   47.0750 	    5.0000 	   32.0000 	   30.9088
    1.4267 	   47.8550 	    5.0000 	   32.0000 	   31.6889
    1.3809 	   48.6330 	    5.0000 	   32.0000 	   32.4669
    1.2741 	   49.4440 	    5.0000 	   32.0000 	   33.2780
    0.9689 	   50.2500 	    5.0000 	   32.0000 	   34.0840
    1.2436 	   51.0500 	    5.0000 	   32.0000 	   34.8841
    1.2284 	   51.8470 	    5.0000 	   32.0000 	   35.6811
    0.9842 	   52.6790 	    5.0000 	   32.0000 	   36.5131
    1.0758 	   53.4900 	    5.0000 	   32.0000 	   37.3242
    0.9537 	   54.2710 	    5.0000 	   32.0000 	   38.1052
    1.0758 	   55.0990 	    5.0000 	   32.0000 	   38.9333
    1.0758 	   55.9500 	    5.0000 	   32.0000 	   39.7833
    0.9689 	   56.7800 	    5.0000 	   32.0000 	   40.6134
    0.8316 	   57.5970 	    5.0000 	   32.0000 	   41.4304
    0.8164 	   58.4040 	    5.0000 	   32.0000 	   42.2375
    1.0147 	   59.2170 	    5.0000 	   32.0000 	   43.0505
    0.8927 	   60.0290 	    5.0000 	   32.0000 	   43.8626
    0.8011 	   60.8080 	    5.0000 	   32.0000 	   44.6416
    0.9384 	   61.6370 	    5.0000 	   32.0000 	   45.4707
    0.8011 	   62.4390 	    5.0000 	   32.0000 	   46.2727
    0.8011 	   63.2780 	    5.0000 	   32.0000 	   47.1118
    0.6943 	   64.0940 	    5.0000 	   32.0000 	   47.9278
    0.9537 	   64.9300 	    5.0000 	   32.0000 	   48.7638
    0.7553 	   65.7980 	    5.0000 	   32.0000 	   49.6319
    0.7706 	   66.6640 	    5.0000 	   32.0000 	   50.4979
    0.7095 	   67.5020 	    5.0000 	   32.0000 	   51.3360
    0.5875 	   68.3690 	    5.0000 	   32.0000 	   52.2030
    0.6180 	   69.2330 	    5.0000 	   32.0000 	   53.0671
    0.5875 	   70.0640 	    5.0000 	   32.0000 	   53.8981
    0.6638 	   70.9050 	    5.0000 	   32.0000 	   54.7392
    0.5875 	   71.7820 	    5.0000 	   32.0000 	   55.6162
    0.6332 	   72.6590 	    5.0000 	   32.0000 	   56.4933
    0.6790 	   73.5360 	    5.0000 	   32.0000 	   57.3693
    0.7706 	   74.4250 	    5.0000 	   32.0000 	   58.2584
    0.7858 	   75.3020 	    5.0000 	   32.0000 	   59.1354
    0.6943 	   76.1730 	    5.0000 	   33.0000 	    0.0065
    0.9384 	   77.0460 	    5.0000 	   33.0000 	    0.8795
    0.8621 	   77.9130 	    5.0000 	   33.0000 	    1.7466
    0.8621 	   78.8000 	    5.0000 	   33.0000 	    2.6336
    0.9689 	   79.6780 	    5.0000 	   33.0000 	    3.5117
    0.9995 	   80.5970 	    5.0000 	   33.0000 	    4.4307
    1.0452 	   81.4760 	    5.0000 	   33.0000 	    5.3098
    1.1063 	   82.3780 	    5.0000 	   33.0000 	    6.2118
    1.0910 	   83.2440 	    5.0000 	   33.0000 	    7.0779
    1.3352 	   84.1580 	    5.0000 	   33.0000 	    7.9919
    0.9384 	   85.0770 	    5.0000 	   33.0000 	    8.9110
    1.3504 	   85.9570 	    5.0000 	   33.0000 	    9.7911
    1.3657 	   86.8460 	    5.0000 	   33.0000 	   10.6801
    1.3352 	   87.7390 	    5.0000 	   33.0000 	   11.5732
    1.5183 	   88.6390 	    5.0000 	   33.0000 	   12.4732
    1.5183 	   89.5240 	    5.0000 	   33.0000 	   13.3583
    1.6861 	   90.4110 	    5.0000 	   33.0000 	   14.2453
    1.6556 	   91.3230 	    5.0000 	   33.0000 	   15.1564
    1.8997 	   92.2470 	    5.0000 	   33.0000 	   16.0804
    1.8692 	   93.1680 	    5.0000 	   33.0000 	   17.0015
    1.9150 	   94.0770 	    5.0000 	   33.0000 	   17.9105
    2.0829 	   94.9980 	    5.0000 	   33.0000 	   18.8316
    2.2507 	   95.9300 	    5.0000 	   33.0000 	   19.7636
    2.2507 	   96.8520 	    5.0000 	   33.0000 	   20.6857
    2.2202 	   97.8060 	    5.0000 	   33.0000 	   21.6397
    2.5406 	   98.7490 	    5.0000 	   33.0000 	   22.5828
    2.5254 	   99.6960 	    5.0000 	   33.0000 	   23.5298
    2.7695 	  100.6500 	    5.0000 	   33.0000 	   24.4839
    3.0289 	  101.6050 	    5.0000 	   33.0000 	   25.4389
    2.9831 	  102.5400 	    5.0000 	   33.0000 	   26.3740
    3.2120 	  103.4660 	    5.0000 	   33.0000 	   27.3001
    3.4409 	  104.4450 	    5.0000 	   33.0000 	   28.2791
    3.4714 	  105.3820 	    5.0000 	   33.0000 	   29.2162
    3.8071 	  106.3510 	    5.0000 	   33.0000 	   30.1852
    3.9902 	  107.2890 	    5.0000 	   33.0000 	   31.1233
    3.6240 	  108.2680 	    5.0000 	   33.0000 	   32.1023
    3.1357 	  109.2410 	    5.0000 	   33.0000 	   33.0744
    2.7543 	  110.2290 	    5.0000 	   33.0000 	   34.0624
    2.5559 	  111.2210 	    5.0000 	   33.0000 	   35.0545
    2.3270 	  112.1650 	    5.0000 	   33.0000 	   35.9986
    2.3575 	  113.1310 	    5.0000 	   33.0000 	   36.9646
    1.8997 	  114.0920 	    5.0000 	   33.0000 	   37.9257
    1.8235 	  115.0680 	    5.0000 	   33.0000 	   38.9017
    1.8082 	  116.0730 	    5.0000 	   33.0000 	   39.9068
    1.6709 	  117.0470 	    5.0000 	   33.0000 	   40.8808
    1.4420 	  118.0450 	    5.0000 	   33.0000 	   41.8789
    1.6556 	  119.0060 	    5.0000 	   33.0000 	   42.8399
    1.3657 	  120.0150 	    5.0000 	   33.0000 	   43.8490
    1.3809 	  121.0110 	    5.0000 	   33.0000 	   44.8451
    1.2589 	  121.9990 	    5.0000 	   33.0000 	   45.8331
    0.9079 	  122.9940 	    5.0000 	   33.0000 	   46.8282
    1.2131 	  123.9710 	    5.0000 	   33.0000 	   47.8052
    1.0910 	  124.9750 	    5.0000 	   33.0000 	   48.8093
    1.0758 	  125.9390 	    5.0000 	   33.0000 	   49.7723
    1.1521 	  126.9540 	    5.0000 	   33.0000 	   50.7874
    0.9995 	  127.9690 	    5.0000 	   33.0000 	   51.8025
    0.9079 	  128.9750 	    5.0000 	   33.0000 	   52.8085
    0.8469 	  130.0050 	    5.0000 	   33.0000 	   53.8386
    0.9995 	  130.9940 	    5.0000 	   33.0000 	   54.8276
    0.8316 	  132.0130 	    5.0000 	   33.0000 	   55.8467
    0.8927 	  133.0110 	    5.0000 	   33.0000 	   56.8447
    0.9384 	  133.9910 	    5.0000 	   33.0000 	   57.8248
    0.8316 	  134.9900 	    5.0000 	   33.0000 	   58.8239
    0.6485 	  135.9940 	    5.0000 	   33.0000 	   59.8279
    0.7095 	  137.0060 	    5.0000 	   34.0000 	    0.8400
    0.7706 	  138.0490 	    5.0000 	   34.0000 	    1.8830
    0.6638 	  139.0700 	    5.0000 	   34.0000 	    2.9041
    0.5722 	  140.1370 	    5.0000 	   34.0000 	    3.9712
    0.6332 	  141.1770 	    5.0000 	   34.0000 	    5.0112
    0.6638 	  142.1740 	    5.0000 	   34.0000 	    6.0083
    0.6180 	  143.2080 	    5.0000 	   34.0000 	    7.0423
    0.4807 	  144.0940 	    5.0000 	   34.0000 	    7.9274