Folder: Smart-Fabrics/instron/independence/hysterisis/bad_l15w3_pre15

File: b_l15w3_25_60_pre15_nonstop.txt
Thayer School of Engineering        Instron 4442 Mechanical Testing System
7/5/2018 4:39:26 AM

  Force (N)	Extension (mm)	Not Used	Not Used	Not Used	     Hour	    Minute	    Second
    1.4420 	    1.0250 	    4.0000 	   39.0000 	   54.9713
    1.3809 	    1.8120 	    4.0000 	   39.0000 	   55.7584
    1.4115 	    2.7320 	    4.0000 	   39.0000 	   56.6784
    1.5488 	    3.4350 	    4.0000 	   39.0000 	   57.3815
    1.5183 	    4.0260 	    4.0000 	   39.0000 	   57.9725
    1.5793 	    4.6200 	    4.0000 	   39.0000 	   58.5665
    1.5640 	    5.2100 	    4.0000 	   39.0000 	   59.1566
    1.7624 	    5.7450 	    4.0000 	   39.0000 	   59.6916
    1.9455 	    6.2650 	    4.0000 	   40.0000 	    0.2116
    1.7777 	    6.8080 	    4.0000 	   40.0000 	    0.7546
    1.8997 	    7.3290 	    4.0000 	   40.0000 	    1.2757
    2.0218 	    7.8860 	    4.0000 	   40.0000 	    1.8327
    2.1134 	    8.4100 	    4.0000 	   40.0000 	    2.3567
    1.8692 	    8.9750 	    4.0000 	   40.0000 	    2.9218
    2.1134 	    9.4950 	    4.0000 	   40.0000 	    3.4418
    2.0371 	   10.0560 	    4.0000 	   40.0000 	    4.0028
    2.2660 	   10.5900 	    4.0000 	   40.0000 	    4.5369
    2.1592 	   11.1420 	    4.0000 	   40.0000 	    5.0889
    2.0066 	   11.6790 	    4.0000 	   40.0000 	    5.6259
    2.2660 	   12.2330 	    4.0000 	   40.0000 	    6.1800
    2.4491 	   12.7960 	    4.0000 	   40.0000 	    6.7430
    2.5254 	   13.3400 	    4.0000 	   40.0000 	    7.2870
    2.6474 	   13.9500 	    4.0000 	   40.0000 	    7.8951
    2.4491 	   14.4730 	    4.0000 	   40.0000 	    8.4191
    2.6932 	   15.0440 	    4.0000 	   40.0000 	    8.9901
    2.7237 	   15.6280 	    4.0000 	   40.0000 	    9.5742
    2.8763 	   16.1910 	    4.0000 	   40.0000 	   10.1372
    2.7543 	   16.7440 	    4.0000 	   40.0000 	   10.6902
    3.0137 	   17.3160 	    4.0000 	   40.0000 	   11.2623
    3.1205 	   17.8970 	    4.0000 	   40.0000 	   11.8433
    3.2883 	   18.4680 	    4.0000 	   40.0000 	   12.4143
    3.1968 	   19.0700 	    4.0000 	   40.0000 	   13.0164
    3.3646 	   19.6320 	    4.0000 	   40.0000 	   13.5784
    3.3799 	   20.2160 	    4.0000 	   40.0000 	   14.1624
    3.5019 	   20.7630 	    4.0000 	   40.0000 	   14.7084
    3.5172 	   21.3440 	    4.0000 	   40.0000 	   15.2905
    3.7308 	   21.9320 	    4.0000 	   40.0000 	   15.8785
    3.8834 	   22.5120 	    4.0000 	   40.0000 	   16.4585
    3.7003 	   23.1040 	    4.0000 	   40.0000 	   17.0506
    3.9597 	   23.6790 	    4.0000 	   40.0000 	   17.6256
    4.1276 	   24.2690 	    4.0000 	   40.0000 	   18.2156
    4.2954 	   24.8320 	    4.0000 	   40.0000 	   18.7787
    4.3259 	   25.4100 	    4.0000 	   40.0000 	   19.3567
    3.6545 	   26.0100 	    4.0000 	   40.0000 	   19.9567
    3.4104 	   26.5840 	    4.0000 	   40.0000 	   20.5308
    3.1968 	   27.1640 	    4.0000 	   40.0000 	   21.1108
    2.9221 	   27.7490 	    4.0000 	   40.0000 	   21.6958
    2.9526 	   28.3350 	    4.0000 	   40.0000 	   22.2819
    2.6322 	   28.9190 	    4.0000 	   40.0000 	   22.8659
    2.5254 	   29.4980 	    4.0000 	   40.0000 	   23.4449
    2.5406 	   30.0550 	    4.0000 	   40.0000 	   24.0020
    2.4186 	   30.6220 	    4.0000 	   40.0000 	   24.5690
    2.2354 	   31.2280 	    4.0000 	   40.0000 	   25.1740
    2.0066 	   31.8030 	    4.0000 	   40.0000 	   25.7491
    2.0218 	   32.3880 	    4.0000 	   40.0000 	   26.3341
    2.0829 	   32.9840 	    4.0000 	   40.0000 	   26.9301
    1.8540 	   33.5530 	    4.0000 	   40.0000 	   27.4992
    1.8387 	   34.1800 	    4.0000 	   40.0000 	   28.1262
    1.8387 	   34.7680 	    4.0000 	   40.0000 	   28.7142
    1.5946 	   35.3750 	    4.0000 	   40.0000 	   29.3213
    1.6861 	   35.9910 	    4.0000 	   40.0000 	   29.9373
    1.5488 	   36.5970 	    4.0000 	   40.0000 	   30.5434
    1.5488 	   37.2140 	    4.0000 	   40.0000 	   31.1604
    1.5183 	   37.8240 	    4.0000 	   40.0000 	   31.7704
    1.3504 	   38.4330 	    4.0000 	   40.0000 	   32.3795
    1.4420 	   39.0520 	    4.0000 	   40.0000 	   32.9985
    1.3046 	   39.6630 	    4.0000 	   40.0000 	   33.6095
    1.2589 	   40.2750 	    4.0000 	   40.0000 	   34.2216
    1.2741 	   40.8750 	    4.0000 	   40.0000 	   34.8216
    1.2131 	   41.5000 	    4.0000 	   40.0000 	   35.4466
    1.2589 	   42.1350 	    4.0000 	   40.0000 	   36.0817
    1.1521 	   42.7470 	    4.0000 	   40.0000 	   36.6937
    1.1368 	   43.3830 	    4.0000 	   40.0000 	   37.3297
    1.1063 	   44.0130 	    4.0000 	   40.0000 	   37.9598
    0.7553 	   44.6350 	    4.0000 	   40.0000 	   38.5818
    1.0605 	   45.2850 	    4.0000 	   40.0000 	   39.2318
    0.7401 	   45.8950 	    4.0000 	   40.0000 	   39.8419
    0.9537 	   46.5150 	    4.0000 	   40.0000 	   40.4619
    0.9842 	   47.1700 	    4.0000 	   40.0000 	   41.1170
    0.9232 	   47.7820 	    4.0000 	   40.0000 	   41.7290
    0.9232 	   48.4250 	    4.0000 	   40.0000 	   42.3710
    0.9384 	   49.0620 	    4.0000 	   40.0000 	   43.0081
    0.9384 	   49.6890 	    4.0000 	   40.0000 	   43.6351
    0.8011 	   50.3370 	    4.0000 	   40.0000 	   44.2831
    0.7553 	   50.9660 	    4.0000 	   40.0000 	   44.9122
    0.9384 	   51.5760 	    4.0000 	   40.0000 	   45.5212
    0.7095 	   52.2430 	    4.0000 	   40.0000 	   46.1892
    1.0147 	   52.8690 	    4.0000 	   40.0000 	   46.8153
    1.1368 	   53.4780 	    4.0000 	   40.0000 	   47.4243
    1.2436 	   54.1330 	    4.0000 	   40.0000 	   48.0794
    1.1368 	   54.7550 	    4.0000 	   40.0000 	   48.7014
    1.0758 	   55.4120 	    4.0000 	   40.0000 	   49.3584
    1.2741 	   56.0460 	    4.0000 	   40.0000 	   49.9925
    1.0910 	   56.6900 	    4.0000 	   40.0000 	   50.6365
    1.3504 	   57.3340 	    4.0000 	   40.0000 	   51.2805
    1.5183 	   57.9570 	    4.0000 	   40.0000 	   51.9036
    1.6556 	   58.5860 	    4.0000 	   40.0000 	   52.5326
    1.5030 	   59.2490 	    4.0000 	   40.0000 	   53.1956
    1.6709 	   59.8740 	    4.0000 	   40.0000 	   53.8207
    1.6403 	   60.5200 	    4.0000 	   40.0000 	   54.4667
    1.5640 	   61.1620 	    4.0000 	   40.0000 	   55.1088
    1.8387 	   61.8070 	    4.0000 	   40.0000 	   55.7538
    1.8540 	   62.4610 	    4.0000 	   40.0000 	   56.4078
    1.9608 	   63.0800 	    4.0000 	   40.0000 	   57.0269
    1.7319 	   63.7250 	    4.0000 	   40.0000 	   57.6719
    2.0676 	   64.3820 	    4.0000 	   40.0000 	   58.3289
    2.1286 	   65.0240 	    4.0000 	   40.0000 	   58.9710
    2.2202 	   65.6810 	    4.0000 	   40.0000 	   59.6280
    2.3270 	   66.3770 	    4.0000 	   41.0000 	    0.3231
    2.5406 	   67.0180 	    4.0000 	   41.0000 	    0.9641
    2.5711 	   67.6610 	    4.0000 	   41.0000 	    1.6071
    2.5864 	   68.3390 	    4.0000 	   41.0000 	    2.2852
    2.6169 	   69.0130 	    4.0000 	   41.0000 	    2.9592
    2.9526 	   69.6750 	    4.0000 	   41.0000 	    3.6212
    2.8611 	   70.3380 	    4.0000 	   41.0000 	    4.2843
    3.0137 	   70.9870 	    4.0000 	   41.0000 	    4.9333
    3.1357 	   71.6290 	    4.0000 	   41.0000 	    5.5754
    2.9374 	   72.3190 	    4.0000 	   41.0000 	    6.2654
    3.3951 	   72.9980 	    4.0000 	   41.0000 	    6.9444
    3.6240 	   73.6740 	    4.0000 	   41.0000 	    7.6205
    3.7156 	   74.3400 	    4.0000 	   41.0000 	    8.2865
    3.7919 	   74.9980 	    4.0000 	   41.0000 	    8.9445
    3.8224 	   75.6930 	    4.0000 	   41.0000 	    9.6396
    4.0360 	   76.3880 	    4.0000 	   41.0000 	   10.3346
    4.1581 	   77.0730 	    4.0000 	   41.0000 	   11.0197
    4.2191 	   77.7350 	    4.0000 	   41.0000 	   11.6817
    3.7003 	   78.4560 	    4.0000 	   41.0000 	   12.4027
    3.2883 	   79.1470 	    4.0000 	   41.0000 	   13.0938
    3.0289 	   79.8280 	    4.0000 	   41.0000 	   13.7748
    2.7695 	   80.5240 	    4.0000 	   41.0000 	   14.4709
    2.5711 	   81.2030 	    4.0000 	   41.0000 	   15.1499
    2.4796 	   81.8750 	    4.0000 	   41.0000 	   15.8219
    2.3880 	   82.5870 	    4.0000 	   41.0000 	   16.5340
    2.1439 	   83.2780 	    4.0000 	   41.0000 	   17.2250
    2.2202 	   83.9500 	    4.0000 	   41.0000 	   17.8961
    2.1134 	   84.6750 	    4.0000 	   41.0000 	   18.6211
    1.7777 	   85.3870 	    4.0000 	   41.0000 	   19.3331
    1.8540 	   86.0840 	    4.0000 	   41.0000 	   20.0302
    1.6861 	   86.7750 	    4.0000 	   41.0000 	   20.7212
    1.7014 	   87.4900 	    4.0000 	   41.0000 	   21.4363
    1.5488 	   88.1940 	    4.0000 	   41.0000 	   22.1403
    1.5946 	   88.9080 	    4.0000 	   41.0000 	   22.8543
    1.3504 	   89.5960 	    4.0000 	   41.0000 	   23.5424
    1.4725 	   90.3060 	    4.0000 	   41.0000 	   24.2524
    1.4420 	   91.0280 	    4.0000 	   41.0000 	   24.9745
    1.3504 	   91.7220 	    4.0000 	   41.0000 	   25.6685
    1.1521 	   92.4610 	    4.0000 	   41.0000 	   26.4075
    1.3809 	   93.1740 	    4.0000 	   41.0000 	   27.1206
    1.2894 	   93.8710 	    4.0000 	   41.0000 	   27.8176
    0.9689 	   94.5920 	    4.0000 	   41.0000 	   28.5387
    1.2131 	   95.3110 	    4.0000 	   41.0000 	   29.2577
    1.1063 	   96.0250 	    4.0000 	   41.0000 	   29.9718
    1.0452 	   96.7700 	    4.0000 	   41.0000 	   30.7168
    1.2284 	   97.5010 	    4.0000 	   41.0000 	   31.4478
    1.0758 	   98.2080 	    4.0000 	   41.0000 	   32.1549
    1.0147 	   98.9330 	    4.0000 	   41.0000 	   32.8799
    1.0605 	   99.6560 	    4.0000 	   41.0000 	   33.6030
    0.5722 	  100.3800 	    4.0000 	   41.0000 	   34.3270
    0.8774 	  101.1070 	    4.0000 	   41.0000 	   35.0530
    0.8774 	  101.8090 	    4.0000 	   41.0000 	   35.7551
    1.0300 	  102.5410 	    4.0000 	   41.0000 	   36.4871
    0.7706 	  103.2960 	    4.0000 	   41.0000 	   37.2422
    0.8316 	  104.0340 	    4.0000 	   41.0000 	   37.9802
    0.8316 	  104.4420 	    4.0000 	   41.0000 	   38.3882