Folder: Smart-Fabrics/instron/deadline/bak/size/bare_15_3

File: bare_15_3_60_120.txt
Thayer School of Engineering        Instron 4442 Mechanical Testing System
7/9/2018 2:41:34 AM

  Force (N)	Extension (mm)	Not Used	Not Used	Not Used	     Hour	    Minute	    Second
    0.1297 	    2.0500 	    2.0000 	   42.0000 	    1.2157
    0.3891 	    3.0920 	    2.0000 	   42.0000 	    1.7367
    0.5570 	    4.1700 	    2.0000 	   42.0000 	    2.2758
    0.4959 	    5.2280 	    2.0000 	   42.0000 	    2.8048
    0.4196 	    6.3260 	    2.0000 	   42.0000 	    3.3538
    0.6180 	    7.0320 	    2.0000 	   42.0000 	    3.7068
    0.5417 	    7.7420 	    2.0000 	   42.0000 	    4.0619
    0.5112 	    8.4760 	    2.0000 	   42.0000 	    4.4289
    0.6485 	    9.1900 	    2.0000 	   42.0000 	    4.7859
    0.4349 	    9.8880 	    2.0000 	   42.0000 	    5.1349
    0.6180 	   10.6340 	    2.0000 	   42.0000 	    5.5079
    0.5264 	   11.3200 	    2.0000 	   42.0000 	    5.8510
    0.5264 	   12.0680 	    2.0000 	   42.0000 	    6.2250
    0.5875 	   12.7520 	    2.0000 	   42.0000 	    6.5670
    0.6943 	   13.4400 	    2.0000 	   42.0000 	    6.9110
    0.6180 	   14.1420 	    2.0000 	   42.0000 	    7.2620
    0.6180 	   14.8360 	    2.0000 	   42.0000 	    7.6091
    0.6332 	   15.5340 	    2.0000 	   42.0000 	    7.9581
    0.7095 	   16.2860 	    2.0000 	   42.0000 	    8.3341
    0.7095 	   17.0120 	    2.0000 	   42.0000 	    8.6971
    0.6790 	   17.7100 	    2.0000 	   42.0000 	    9.0462
    0.6332 	   18.4260 	    2.0000 	   42.0000 	    9.4042
    0.6332 	   19.1480 	    2.0000 	   42.0000 	    9.7652
    0.6332 	   19.8480 	    2.0000 	   42.0000 	   10.1152
    0.6332 	   20.5420 	    2.0000 	   42.0000 	   10.4622
    0.6943 	   21.2480 	    2.0000 	   42.0000 	   10.8153
    0.7248 	   21.9580 	    2.0000 	   42.0000 	   11.1703
    0.8774 	   22.6640 	    2.0000 	   42.0000 	   11.5233
    0.8621 	   23.3680 	    2.0000 	   42.0000 	   11.8753
    0.5722 	   24.0660 	    2.0000 	   42.0000 	   12.2243
    0.6638 	   24.7760 	    2.0000 	   42.0000 	   12.5794
    0.8164 	   25.4720 	    2.0000 	   42.0000 	   12.9274
    0.8927 	   26.2080 	    2.0000 	   42.0000 	   13.2954
    0.7706 	   26.9280 	    2.0000 	   42.0000 	   13.6554
    0.8469 	   27.6200 	    2.0000 	   42.0000 	   14.0014
    0.9842 	   28.3440 	    2.0000 	   42.0000 	   14.3635
    0.9232 	   29.0600 	    2.0000 	   42.0000 	   14.7215
    0.7706 	   29.7860 	    2.0000 	   42.0000 	   15.0845
    1.1368 	   30.5200 	    2.0000 	   42.0000 	   15.4515
    0.6638 	   31.3120 	    2.0000 	   42.0000 	   15.8475
    0.8621 	   32.0500 	    2.0000 	   42.0000 	   16.2166
    1.1215 	   32.7800 	    2.0000 	   42.0000 	   16.5816
    0.9537 	   33.5220 	    2.0000 	   42.0000 	   16.9526
    0.9232 	   34.2520 	    2.0000 	   42.0000 	   17.3176
    0.9537 	   34.9780 	    2.0000 	   42.0000 	   17.6806
    1.0300 	   35.7040 	    2.0000 	   42.0000 	   18.0427
    0.9537 	   36.4320 	    2.0000 	   42.0000 	   18.4067
    0.6790 	   37.1660 	    2.0000 	   42.0000 	   18.7727
    1.0758 	   37.8920 	    2.0000 	   42.0000 	   19.1367
    1.1521 	   38.6260 	    2.0000 	   42.0000 	   19.5037
    0.9842 	   39.3500 	    2.0000 	   42.0000 	   19.8658
    1.1063 	   40.0800 	    2.0000 	   42.0000 	   20.2308
    0.9995 	   40.8200 	    2.0000 	   42.0000 	   20.6008
    1.1215 	   41.5660 	    2.0000 	   42.0000 	   20.9738
    1.1521 	   42.3080 	    2.0000 	   42.0000 	   21.3449
    1.0605 	   43.0380 	    2.0000 	   42.0000 	   21.7099
    1.0147 	   43.7580 	    2.0000 	   42.0000 	   22.0699
    1.1673 	   44.4900 	    2.0000 	   42.0000 	   22.4359
    0.9842 	   45.2260 	    2.0000 	   42.0000 	   22.8039
    1.1215 	   45.9580 	    2.0000 	   42.0000 	   23.1700
    1.1215 	   46.7000 	    2.0000 	   42.0000 	   23.5410
    1.2741 	   47.4540 	    2.0000 	   42.0000 	   23.9180
    1.3199 	   48.1940 	    2.0000 	   42.0000 	   24.2880
    1.2589 	   48.9400 	    2.0000 	   42.0000 	   24.6610
    1.3046 	   49.6840 	    2.0000 	   42.0000 	   25.0331
    1.3046 	   50.4220 	    2.0000 	   42.0000 	   25.4021
    1.1521 	   51.1640 	    2.0000 	   42.0000 	   25.7731
    1.2741 	   51.9120 	    2.0000 	   42.0000 	   26.1471
    1.4115 	   52.6780 	    2.0000 	   42.0000 	   26.5302
    1.3352 	   53.4420 	    2.0000 	   42.0000 	   26.9122
    1.3046 	   54.2020 	    2.0000 	   42.0000 	   27.2922
    1.3962 	   54.9600 	    2.0000 	   42.0000 	   27.6712
    1.4572 	   55.7220 	    2.0000 	   42.0000 	   28.0522
    1.5030 	   56.4860 	    2.0000 	   42.0000 	   28.4343
    1.0300 	   57.2580 	    2.0000 	   42.0000 	   28.8203
    1.2589 	   58.0140 	    2.0000 	   42.0000 	   29.1983
    1.5488 	   58.7860 	    2.0000 	   42.0000 	   29.5843
    1.4725 	   59.5600 	    2.0000 	   42.0000 	   29.9713
    1.5488 	   60.3060 	    2.0000 	   42.0000 	   30.3444
    1.4115 	   61.0600 	    2.0000 	   42.0000 	   30.7214
    1.4420 	   61.7880 	    2.0000 	   42.0000 	   31.0854
    1.3352 	   62.4560 	    2.0000 	   42.0000 	   31.4194
    1.1826 	   63.1480 	    2.0000 	   42.0000 	   31.7654
    1.2741 	   63.9080 	    2.0000 	   42.0000 	   32.1455
    1.1368 	   64.6760 	    2.0000 	   42.0000 	   32.5295
    1.2131 	   65.4680 	    2.0000 	   42.0000 	   32.9255
    1.0147 	   66.2600 	    2.0000 	   42.0000 	   33.3215
    1.0605 	   67.0320 	    2.0000 	   42.0000 	   33.7076
    1.1978 	   67.8000 	    2.0000 	   42.0000 	   34.0916
    1.1063 	   68.5500 	    2.0000 	   42.0000 	   34.4666
    1.0452 	   69.3380 	    2.0000 	   42.0000 	   34.8606
    1.1521 	   70.0600 	    2.0000 	   42.0000 	   35.2216
    1.1063 	   70.7880 	    2.0000 	   42.0000 	   35.5847
    1.0147 	   71.5760 	    2.0000 	   42.0000 	   35.9787
    0.9232 	   72.3560 	    2.0000 	   42.0000 	   36.3687
    0.9384 	   73.0820 	    2.0000 	   42.0000 	   36.7317
    0.9384 	   73.8720 	    2.0000 	   42.0000 	   37.1268
    0.8774 	   74.6520 	    2.0000 	   42.0000 	   37.5168
    0.9537 	   75.4220 	    2.0000 	   42.0000 	   37.9018
    1.0605 	   76.2240 	    2.0000 	   42.0000 	   38.3028
    0.9689 	   76.9700 	    2.0000 	   42.0000 	   38.6758
    0.8621 	   77.7660 	    2.0000 	   42.0000 	   39.0739
    0.8469 	   78.5640 	    2.0000 	   42.0000 	   39.4729
    0.8316 	   79.3200 	    2.0000 	   42.0000 	   39.8509
    0.9537 	   80.1140 	    2.0000 	   42.0000 	   40.2479
    0.7858 	   80.8600 	    2.0000 	   42.0000 	   40.6210
    0.7553 	   81.6660 	    2.0000 	   42.0000 	   41.0240
    0.8621 	   82.4680 	    2.0000 	   42.0000 	   41.4250
    0.7553 	   83.2260 	    2.0000 	   42.0000 	   41.8040
    0.7553 	   84.0380 	    2.0000 	   42.0000 	   42.2100
    0.8316 	   84.8120 	    2.0000 	   42.0000 	   42.5971
    0.7553 	   85.5780 	    2.0000 	   42.0000 	   42.9801
    0.8164 	   86.3880 	    2.0000 	   42.0000 	   43.3851
    0.5875 	   87.1840 	    2.0000 	   42.0000 	   43.7831
    0.5875 	   88.0040 	    2.0000 	   42.0000 	   44.1932
    0.6790 	   88.7900 	    2.0000 	   42.0000 	   44.5862
    0.7248 	   89.5240 	    2.0000 	   42.0000 	   44.9532
    0.7553 	   90.2420 	    2.0000 	   42.0000 	   45.3122
    0.4196 	   90.9800 	    2.0000 	   42.0000 	   45.6812
    0.7401 	   91.7760 	    2.0000 	   42.0000 	   46.0793
    0.6638 	   92.5860 	    2.0000 	   42.0000 	   46.4843
    0.6332 	   93.3340 	    2.0000 	   42.0000 	   46.8583
    0.5722 	   94.1640 	    2.0000 	   42.0000 	   47.2733
    0.6027 	   94.9480 	    2.0000 	   42.0000 	   47.6654
    0.5417 	   95.8040 	    2.0000 	   42.0000 	   48.0934
    0.4959 	   96.6140 	    2.0000 	   42.0000 	   48.4984
    0.5570 	   97.4180 	    2.0000 	   42.0000 	   48.9004
    0.7401 	   98.2580 	    2.0000 	   42.0000 	   49.3205
    0.6485 	   99.0520 	    2.0000 	   42.0000 	   49.7175
    0.5875 	   99.8720 	    2.0000 	   42.0000 	   50.1275
    0.4807 	  100.7040 	    2.0000 	   42.0000 	   50.5435
    0.5264 	  101.5320 	    2.0000 	   42.0000 	   50.9575
    0.5264 	  102.3720 	    2.0000 	   42.0000 	   51.3776
    0.4807 	  103.1980 	    2.0000 	   42.0000 	   51.7906
    0.4501 	  104.0520 	    2.0000 	   42.0000 	   52.2176
    0.3281 	  104.8500 	    2.0000 	   42.0000 	   52.6166
    0.5417 	  105.7080 	    2.0000 	   42.0000 	   53.0447
    0.4959 	  106.5460 	    2.0000 	   42.0000 	   53.4637
    0.4196 	  107.3400 	    2.0000 	   42.0000 	   53.8607
    0.4654 	  108.1620 	    2.0000 	   42.0000 	   54.2717
    0.4501 	  109.0100 	    2.0000 	   42.0000 	   54.6958
    0.3738 	  109.8500 	    2.0000 	   42.0000 	   55.1158
    0.3433 	  110.7020 	    2.0000 	   42.0000 	   55.5418
    0.3738 	  111.5360 	    2.0000 	   42.0000 	   55.9588
    0.1450 	  112.3920 	    2.0000 	   42.0000 	   56.3869
    0.4044 	  113.2500 	    2.0000 	   42.0000 	   56.8159
    0.3281 	  114.1060 	    2.0000 	   42.0000 	   57.2439
    0.1144 	  114.9300 	    2.0000 	   42.0000 	   57.6559
    0.3738 	  115.8120 	    2.0000 	   42.0000 	   58.0970
    0.4501 	  116.6740 	    2.0000 	   42.0000 	   58.5280
    0.4044 	  117.4880 	    2.0000 	   42.0000 	   58.9350
    0.3738 	  118.3100 	    2.0000 	   42.0000 	   59.3460
    0.3433 	  119.0740 	    2.0000 	   42.0000 	   59.7281
    0.3738 	  119.9200 	    2.0000 	   43.0000 	    0.1511
    0.4196 	  120.7940 	    2.0000 	   43.0000 	    0.5881
    0.3738 	  121.6440 	    2.0000 	   43.0000 	    1.0131
    0.2365 	  122.4920 	    2.0000 	   43.0000 	    1.4371