Folder: Smart-Fabrics/instron/deadline/bak/size/bare_15_1

File: bare_15_1_60_30.txt
Thayer School of Engineering        Instron 4442 Mechanical Testing System
7/9/2018 12:43:22 AM

  Force (N)	Extension (mm)	Not Used	Not Used	Not Used	     Hour	    Minute	    Second
    0.4349 	    0.5070 	    0.0000 	   44.0000 	    3.5099
    0.4501 	    0.9260 	    0.0000 	   44.0000 	    4.3479
    0.1907 	    1.3450 	    0.0000 	   44.0000 	    5.1860
    0.4501 	    1.7435 	    0.0000 	   44.0000 	    5.9820
    0.4959 	    2.0365 	    0.0000 	   44.0000 	    6.5681
    0.3128 	    2.3280 	    0.0000 	   44.0000 	    7.1511
    0.4807 	    2.6200 	    0.0000 	   44.0000 	    7.7351
    0.4196 	    2.9020 	    0.0000 	   44.0000 	    8.2992
    0.6180 	    3.1845 	    0.0000 	   44.0000 	    8.8642
    0.4654 	    3.4675 	    0.0000 	   44.0000 	    9.4302
    0.4807 	    3.7590 	    0.0000 	   44.0000 	   10.0133
    0.4501 	    4.0440 	    0.0000 	   44.0000 	   10.5833
    0.4196 	    4.3250 	    0.0000 	   44.0000 	   11.1453
    0.4959 	    4.6130 	    0.0000 	   44.0000 	   11.7214
    0.5570 	    4.9010 	    0.0000 	   44.0000 	   12.2974
    0.4501 	    5.1905 	    0.0000 	   44.0000 	   12.8764
    0.3738 	    5.4780 	    0.0000 	   44.0000 	   13.4515
    0.3738 	    5.7730 	    0.0000 	   44.0000 	   14.0415
    0.5875 	    6.0635 	    0.0000 	   44.0000 	   14.6225
    0.4959 	    6.3525 	    0.0000 	   44.0000 	   15.2006
    0.4959 	    6.6470 	    0.0000 	   44.0000 	   15.7896
    0.6485 	    6.9355 	    0.0000 	   44.0000 	   16.3666
    0.6180 	    7.2290 	    0.0000 	   44.0000 	   16.9536
    0.6180 	    7.5190 	    0.0000 	   44.0000 	   17.5337
    0.5722 	    7.8120 	    0.0000 	   44.0000 	   18.1197
    0.4349 	    8.0940 	    0.0000 	   44.0000 	   18.6838
    0.6180 	    8.3980 	    0.0000 	   44.0000 	   19.2918
    0.4196 	    8.7000 	    0.0000 	   44.0000 	   19.8958
    0.5570 	    9.0070 	    0.0000 	   44.0000 	   20.5099
    0.5417 	    9.3095 	    0.0000 	   44.0000 	   21.1149
    0.6638 	    9.6175 	    0.0000 	   44.0000 	   21.7309
    0.5875 	    9.9260 	    0.0000 	   44.0000 	   22.3480
    0.6027 	   10.2300 	    0.0000 	   44.0000 	   22.9560
    0.6790 	   10.5455 	    0.0000 	   44.0000 	   23.5860
    0.5570 	   10.8595 	    0.0000 	   44.0000 	   24.2141
    0.2823 	   11.1675 	    0.0000 	   44.0000 	   24.8301
    0.5264 	   11.4825 	    0.0000 	   44.0000 	   25.4601
    0.2823 	   11.8020 	    0.0000 	   44.0000 	   26.0992
    0.6638 	   12.1080 	    0.0000 	   44.0000 	   26.7112
    0.2976 	   12.4280 	    0.0000 	   44.0000 	   27.3512
    0.6027 	   12.7445 	    0.0000 	   44.0000 	   27.9843
    0.7706 	   13.0670 	    0.0000 	   44.0000 	   28.6293
    0.5722 	   13.3900 	    0.0000 	   44.0000 	   29.2754
    0.5570 	   13.7110 	    0.0000 	   44.0000 	   29.9174
    0.6638 	   14.0210 	    0.0000 	   44.0000 	   30.5374
    0.6638 	   14.3460 	    0.0000 	   44.0000 	   31.1875
    0.6943 	   14.6700 	    0.0000 	   44.0000 	   31.8355
    0.5570 	   14.9945 	    0.0000 	   44.0000 	   32.4845
    0.6027 	   15.3210 	    0.0000 	   44.0000 	   33.1376
    0.6638 	   15.6555 	    0.0000 	   44.0000 	   33.8066
    0.5722 	   15.9830 	    0.0000 	   44.0000 	   34.4617
    0.6638 	   16.3130 	    0.0000 	   44.0000 	   35.1217
    0.8316 	   16.6400 	    0.0000 	   44.0000 	   35.7757
    0.6790 	   16.9680 	    0.0000 	   44.0000 	   36.4318
    0.7095 	   17.2905 	    0.0000 	   44.0000 	   37.0768
    0.7706 	   17.6225 	    0.0000 	   44.0000 	   37.7408
    0.6943 	   17.9535 	    0.0000 	   44.0000 	   38.4029
    0.7706 	   18.2815 	    0.0000 	   44.0000 	   39.0589
    0.6485 	   18.6070 	    0.0000 	   44.0000 	   39.7090
    0.6943 	   18.9420 	    0.0000 	   44.0000 	   40.3800
    0.7858 	   19.2800 	    0.0000 	   44.0000 	   41.0550
    0.7095 	   19.6060 	    0.0000 	   44.0000 	   41.7071
    0.7553 	   19.9445 	    0.0000 	   44.0000 	   42.3841
    0.8011 	   20.2865 	    0.0000 	   44.0000 	   43.0681
    0.7095 	   20.6400 	    0.0000 	   44.0000 	   43.7752
    0.8011 	   20.9800 	    0.0000 	   44.0000 	   44.4552
    0.8316 	   21.3175 	    0.0000 	   44.0000 	   45.1303
    0.7706 	   21.6650 	    0.0000 	   44.0000 	   45.8253
    0.6943 	   22.0125 	    0.0000 	   44.0000 	   46.5203
    0.7553 	   22.3600 	    0.0000 	   44.0000 	   47.2154
    0.9232 	   22.7050 	    0.0000 	   44.0000 	   47.9054
    0.8316 	   23.0525 	    0.0000 	   44.0000 	   48.6005
    0.9232 	   23.3985 	    0.0000 	   44.0000 	   49.2925
    0.8316 	   23.7380 	    0.0000 	   44.0000 	   49.9715
    0.7553 	   24.0690 	    0.0000 	   44.0000 	   50.6336
    0.7553 	   24.4095 	    0.0000 	   44.0000 	   51.3146
    0.7248 	   24.7610 	    0.0000 	   44.0000 	   52.0177
    0.7401 	   25.1165 	    0.0000 	   44.0000 	   52.7287
    0.8469 	   25.4695 	    0.0000 	   44.0000 	   53.4347
    0.9232 	   25.8130 	    0.0000 	   44.0000 	   54.1218
    0.7706 	   26.1505 	    0.0000 	   44.0000 	   54.7968
    0.9384 	   26.5050 	    0.0000 	   44.0000 	   55.5059
    0.7248 	   26.8700 	    0.0000 	   44.0000 	   56.2359
    0.8469 	   27.2285 	    0.0000 	   44.0000 	   56.9529
    1.0452 	   27.5825 	    0.0000 	   44.0000 	   57.6610
    0.7248 	   27.9500 	    0.0000 	   44.0000 	   58.3950
    0.8469 	   28.2975 	    0.0000 	   44.0000 	   59.0901
    0.6943 	   28.6500 	    0.0000 	   44.0000 	   59.7951
    0.7858 	   29.0310 	    0.0000 	   45.0000 	    0.5571
    0.8469 	   29.4050 	    0.0000 	   45.0000 	    1.3052
    0.8621 	   29.7625 	    0.0000 	   45.0000 	    2.0202
    0.7706 	   30.1325 	    0.0000 	   45.0000 	    2.7603
    0.8164 	   30.4985 	    0.0000 	   45.0000 	    3.4923
    1.0300 	   30.8705 	    0.0000 	   45.0000 	    4.2364
    0.8011 	   31.2390 	    0.0000 	   45.0000 	    4.9734
    0.9232 	   31.6025 	    0.0000 	   45.0000 	    5.7004
    0.9232 	   31.9765 	    0.0000 	   45.0000 	    6.4485
    0.7401 	   32.3430 	    0.0000 	   45.0000 	    7.1815
    0.7248 	   32.7185 	    0.0000 	   45.0000 	    7.9316
    0.8164 	   33.0940 	    0.0000 	   45.0000 	    8.6836
    0.9079 	   33.4705 	    0.0000 	   45.0000 	    9.4367
    0.8774 	   33.8515 	    0.0000 	   45.0000 	   10.1987
    0.8164 	   34.2325 	    0.0000 	   45.0000 	   10.9607
    0.8621 	   34.6125 	    0.0000 	   45.0000 	   11.7208
    0.9537 	   34.9910 	    0.0000 	   45.0000 	   12.4778
    0.8469 	   35.3665 	    0.0000 	   45.0000 	   13.2289
    0.9232 	   35.7350 	    0.0000 	   45.0000 	   13.9659
    0.9842 	   36.0765 	    0.0000 	   45.0000 	   14.6490
    0.9384 	   36.4330 	    0.0000 	   45.0000 	   15.3620
    0.9079 	   36.8110 	    0.0000 	   45.0000 	   16.1170
    0.7858 	   37.1835 	    0.0000 	   45.0000 	   16.8621
    0.8927 	   37.5510 	    0.0000 	   45.0000 	   17.5971
    0.8469 	   37.9145 	    0.0000 	   45.0000 	   18.3242
    0.8774 	   38.2740 	    0.0000 	   45.0000 	   19.0432
    0.8011 	   38.6315 	    0.0000 	   45.0000 	   19.7582
    0.9689 	   39.0115 	    0.0000 	   45.0000 	   20.5183
    1.0300 	   39.3760 	    0.0000 	   45.0000 	   21.2473
    0.7858 	   39.7285 	    0.0000 	   45.0000 	   21.9524
    0.9384 	   40.0965 	    0.0000 	   45.0000 	   22.6884
    0.8774 	   40.4640 	    0.0000 	   45.0000 	   23.4235
    0.8774 	   40.8550 	    0.0000 	   45.0000 	   24.2055
    0.9842 	   41.2270 	    0.0000 	   45.0000 	   24.9495
    0.9842 	   41.6150 	    0.0000 	   45.0000 	   25.7256
    0.9995 	   41.9715 	    0.0000 	   45.0000 	   26.4386
    1.0910 	   42.3435 	    0.0000 	   45.0000 	   27.1827
    0.9079 	   42.7200 	    0.0000 	   45.0000 	   27.9347
    1.1368 	   43.0905 	    0.0000 	   45.0000 	   28.6768
    1.0758 	   43.4810 	    0.0000 	   45.0000 	   29.4578
    1.1215 	   43.8820 	    0.0000 	   45.0000 	   30.2598
    1.0758 	   44.2895 	    0.0000 	   45.0000 	   31.0749
    1.0452 	   44.6700 	    0.0000 	   45.0000 	   31.8359
    0.9537 	   45.0545 	    0.0000 	   45.0000 	   32.6050
    0.9079 	   45.4595 	    0.0000 	   45.0000 	   33.4140
    1.1826 	   45.8605 	    0.0000 	   45.0000 	   34.2161
    1.0452 	   46.2630 	    0.0000 	   45.0000 	   35.0211
    1.0758 	   46.6690 	    0.0000 	   45.0000 	   35.8332
    1.1063 	   47.0635 	    0.0000 	   45.0000 	   36.6222
    1.1521 	   47.4505 	    0.0000 	   45.0000 	   37.3963
    1.1521 	   47.8540 	    0.0000 	   45.0000 	   38.2033
    1.1215 	   48.2345 	    0.0000 	   45.0000 	   38.9643
    0.9537 	   48.6295 	    0.0000 	   45.0000 	   39.7544
    0.8011 	   49.0220 	    0.0000 	   45.0000 	   40.5394
    1.1368 	   49.4370 	    0.0000 	   45.0000 	   41.3695
    1.1368 	   49.8435 	    0.0000 	   45.0000 	   42.1825
    1.0605 	   50.2320 	    0.0000 	   45.0000 	   42.9596
    1.1215 	   50.6310 	    0.0000 	   45.0000 	   43.7576
    0.9384 	   51.0405 	    0.0000 	   45.0000 	   44.5767
    1.1215 	   51.4310 	    0.0000 	   45.0000 	   45.3577
    1.1215 	   51.8425 	    0.0000 	   45.0000 	   46.1808
    1.1521 	   52.2475 	    0.0000 	   45.0000 	   46.9908
    1.0452 	   52.6545 	    0.0000 	   45.0000 	   47.8048
    1.1978 	   53.0655 	    0.0000 	   45.0000 	   48.6269
    1.0300 	   53.4775 	    0.0000 	   45.0000 	   49.4509
    1.1215 	   53.8700 	    0.0000 	   45.0000 	   50.2360
    1.3046 	   54.2580 	    0.0000 	   45.0000 	   51.0110
    1.0300 	   54.6350 	    0.0000 	   45.0000 	   51.7651
    1.0758 	   55.0290 	    0.0000 	   45.0000 	   52.5531
    1.1521 	   55.4255 	    0.0000 	   45.0000 	   53.3462
    1.4420 	   55.8095 	    0.0000 	   45.0000 	   54.1142
    1.2131 	   56.1945 	    0.0000 	   45.0000 	   54.8843
    1.1673 	   56.5815 	    0.0000 	   45.0000 	   55.6583
    1.3199 	   56.9765 	    0.0000 	   45.0000 	   56.4483
    1.3504 	   57.3735 	    0.0000 	   45.0000 	   57.2424
    1.1978 	   57.7565 	    0.0000 	   45.0000 	   58.0084
    1.2131 	   58.1625 	    0.0000 	   45.0000 	   58.8205
    1.2284 	   58.5455 	    0.0000 	   45.0000 	   59.5865
    1.0758 	   58.9380 	    0.0000 	   46.0000 	    0.3716
    1.2284 	   59.3565 	    0.0000 	   46.0000 	    1.2086
    1.1826 	   59.7640 	    0.0000 	   46.0000 	    2.0237
    1.2131 	   59.9735 	    0.0000 	   46.0000 	    2.4427