Folder: Smart-Fabrics/instron/deadline/bak/size/blue_15_1_new

File: blue_15_1_60_120.txt
Thayer School of Engineering        Instron 4442 Mechanical Testing System
7/9/2018 3:11:25 AM

  Force (N)	Extension (mm)	Not Used	Not Used	Not Used	     Hour	    Minute	    Second
    0.6638 	    2.0560 	    3.0000 	   11.0000 	   56.6584
    0.8164 	    3.2160 	    3.0000 	   11.0000 	   57.2384
    1.1063 	    4.3460 	    3.0000 	   11.0000 	   57.8035
    1.0452 	    5.5440 	    3.0000 	   11.0000 	   58.4025
    1.0910 	    6.5460 	    3.0000 	   11.0000 	   58.9035
    1.1673 	    7.3460 	    3.0000 	   11.0000 	   59.3035
    1.1521 	    8.0560 	    3.0000 	   11.0000 	   59.6586
    1.3504 	    8.7440 	    3.0000 	   12.0000 	    0.0026
    1.2741 	    9.3880 	    3.0000 	   12.0000 	    0.3246
    1.4115 	   10.1160 	    3.0000 	   12.0000 	    0.6886
    1.3657 	   10.7420 	    3.0000 	   12.0000 	    1.0016
    1.2894 	   11.3800 	    3.0000 	   12.0000 	    1.3207
    1.1521 	   12.0820 	    3.0000 	   12.0000 	    1.6717
    1.3962 	   12.7440 	    3.0000 	   12.0000 	    2.0027
    1.5335 	   13.3780 	    3.0000 	   12.0000 	    2.3197
    1.5030 	   14.0620 	    3.0000 	   12.0000 	    2.6617
    1.5335 	   14.7440 	    3.0000 	   12.0000 	    3.0028
    1.5335 	   15.3860 	    3.0000 	   12.0000 	    3.3238
    1.5640 	   16.0940 	    3.0000 	   12.0000 	    3.6778
    1.6251 	   16.7640 	    3.0000 	   12.0000 	    4.0128
    1.7166 	   17.4180 	    3.0000 	   12.0000 	    4.3398
    1.6403 	   18.1180 	    3.0000 	   12.0000 	    4.6899
    1.7929 	   18.7940 	    3.0000 	   12.0000 	    5.0279
    1.6709 	   19.4300 	    3.0000 	   12.0000 	    5.3459
    1.8387 	   20.1140 	    3.0000 	   12.0000 	    5.6879
    1.9608 	   20.7720 	    3.0000 	   12.0000 	    6.0169
    1.7777 	   21.3700 	    3.0000 	   12.0000 	    6.3159
    1.5946 	   22.0340 	    3.0000 	   12.0000 	    6.6480
    1.8082 	   22.6860 	    3.0000 	   12.0000 	    6.9740
    1.9608 	   23.3220 	    3.0000 	   12.0000 	    7.2920
    2.1439 	   24.0360 	    3.0000 	   12.0000 	    7.6480
    2.0829 	   24.7260 	    3.0000 	   12.0000 	    7.9930
    1.9303 	   25.3660 	    3.0000 	   12.0000 	    8.3131
    2.0981 	   26.1180 	    3.0000 	   12.0000 	    8.6891
    1.9608 	   26.7940 	    3.0000 	   12.0000 	    9.0271
    2.1897 	   27.4340 	    3.0000 	   12.0000 	    9.3471
    2.0829 	   28.1360 	    3.0000 	   12.0000 	    9.6981
    2.3728 	   28.8200 	    3.0000 	   12.0000 	   10.0402
    2.3423 	   29.4800 	    3.0000 	   12.0000 	   10.3702
    2.4948 	   30.2100 	    3.0000 	   12.0000 	   10.7352
    2.3270 	   30.8840 	    3.0000 	   12.0000 	   11.0722
    2.3575 	   31.5500 	    3.0000 	   12.0000 	   11.4052
    2.5101 	   32.2640 	    3.0000 	   12.0000 	   11.7623
    2.5254 	   32.9400 	    3.0000 	   12.0000 	   12.1003
    2.2354 	   33.5720 	    3.0000 	   12.0000 	   12.4163
    2.6932 	   34.3480 	    3.0000 	   12.0000 	   12.8043
    2.7390 	   35.0120 	    3.0000 	   12.0000 	   13.1363
    2.6627 	   35.7160 	    3.0000 	   12.0000 	   13.4884
    2.7695 	   36.4360 	    3.0000 	   12.0000 	   13.8484
    2.9374 	   37.0700 	    3.0000 	   12.0000 	   14.1654
    2.8305 	   37.7000 	    3.0000 	   12.0000 	   14.4804
    2.9221 	   38.4160 	    3.0000 	   12.0000 	   14.8384
    3.0289 	   39.0860 	    3.0000 	   12.0000 	   15.1735
    3.0289 	   39.8180 	    3.0000 	   12.0000 	   15.5395
    3.0747 	   40.6040 	    3.0000 	   12.0000 	   15.9325
    3.2273 	   41.2600 	    3.0000 	   12.0000 	   16.2605
    3.1968 	   41.9820 	    3.0000 	   12.0000 	   16.6215
    3.2425 	   42.6920 	    3.0000 	   12.0000 	   16.9766
    3.3036 	   43.3820 	    3.0000 	   12.0000 	   17.3216
    3.3646 	   44.1160 	    3.0000 	   12.0000 	   17.6886
    3.2273 	   44.8240 	    3.0000 	   12.0000 	   18.0426
    3.5325 	   45.4880 	    3.0000 	   12.0000 	   18.3746
    3.4867 	   46.2240 	    3.0000 	   12.0000 	   18.7427
    3.6088 	   46.9120 	    3.0000 	   12.0000 	   19.0867
    3.6698 	   47.6380 	    3.0000 	   12.0000 	   19.4497
    3.5935 	   48.3640 	    3.0000 	   12.0000 	   19.8127
    3.8376 	   49.0520 	    3.0000 	   12.0000 	   20.1567
    3.8987 	   49.7720 	    3.0000 	   12.0000 	   20.5168
    4.0665 	   50.5200 	    3.0000 	   12.0000 	   20.8908
    4.1428 	   51.2440 	    3.0000 	   12.0000 	   21.2528
    4.2039 	   51.9620 	    3.0000 	   12.0000 	   21.6118
    4.1581 	   52.7120 	    3.0000 	   12.0000 	   21.9868
    4.2954 	   53.3840 	    3.0000 	   12.0000 	   22.3229
    4.5853 	   54.1160 	    3.0000 	   12.0000 	   22.6889
    4.4938 	   54.8180 	    3.0000 	   12.0000 	   23.0399
    4.6769 	   55.4720 	    3.0000 	   12.0000 	   23.3669
    4.6921 	   56.1900 	    3.0000 	   12.0000 	   23.7259
    4.5853 	   56.9180 	    3.0000 	   12.0000 	   24.0900
    4.9668 	   57.6420 	    3.0000 	   12.0000 	   24.4520
    5.0889 	   58.3920 	    3.0000 	   12.0000 	   24.8270
    5.1957 	   59.0780 	    3.0000 	   12.0000 	   25.1690
    5.4398 	   59.8040 	    3.0000 	   12.0000 	   25.5320
    4.8753 	   60.5560 	    3.0000 	   12.0000 	   25.9081
    4.5396 	   61.2600 	    3.0000 	   12.0000 	   26.2601
    4.1886 	   61.9940 	    3.0000 	   12.0000 	   26.6271
    3.9597 	   62.7100 	    3.0000 	   12.0000 	   26.9851
    3.8071 	   63.4100 	    3.0000 	   12.0000 	   27.3352
    3.6545 	   64.1700 	    3.0000 	   12.0000 	   27.7152
    3.5935 	   64.8880 	    3.0000 	   12.0000 	   28.0742
    3.3951 	   65.5640 	    3.0000 	   12.0000 	   28.4122
    3.3646 	   66.3300 	    3.0000 	   12.0000 	   28.7952
    3.1510 	   67.0400 	    3.0000 	   12.0000 	   29.1503
    2.9984 	   67.7240 	    3.0000 	   12.0000 	   29.4923
    2.9831 	   68.4880 	    3.0000 	   12.0000 	   29.8743
    2.9374 	   69.1880 	    3.0000 	   12.0000 	   30.2243
    2.7848 	   69.9340 	    3.0000 	   12.0000 	   30.5973
    2.4948 	   70.6740 	    3.0000 	   12.0000 	   30.9674
    2.7695 	   71.3760 	    3.0000 	   12.0000 	   31.3184
    2.5711 	   72.1260 	    3.0000 	   12.0000 	   31.6934
    2.4491 	   72.8900 	    3.0000 	   12.0000 	   32.0754
    2.5254 	   73.6040 	    3.0000 	   12.0000 	   32.4324
    2.4948 	   74.4000 	    3.0000 	   12.0000 	   32.8305
    2.4186 	   75.1120 	    3.0000 	   12.0000 	   33.1865
    2.3880 	   75.8120 	    3.0000 	   12.0000 	   33.5365
    2.3728 	   76.5560 	    3.0000 	   12.0000 	   33.9085
    2.0066 	   77.2800 	    3.0000 	   12.0000 	   34.2705
    2.1286 	   78.0020 	    3.0000 	   12.0000 	   34.6316
    2.0371 	   78.7720 	    3.0000 	   12.0000 	   35.0166
    2.1439 	   79.4820 	    3.0000 	   12.0000 	   35.3716
    2.1134 	   80.2320 	    3.0000 	   12.0000 	   35.7466
    2.0676 	   80.9320 	    3.0000 	   12.0000 	   36.0967
    2.0523 	   81.6560 	    3.0000 	   12.0000 	   36.4587
    1.9150 	   82.4160 	    3.0000 	   12.0000 	   36.8387
    1.7624 	   83.1380 	    3.0000 	   12.0000 	   37.1997
    1.8082 	   83.8540 	    3.0000 	   12.0000 	   37.5577
    1.7319 	   84.5960 	    3.0000 	   12.0000 	   37.9288
    1.7929 	   85.2960 	    3.0000 	   12.0000 	   38.2788
    1.5640 	   86.0820 	    3.0000 	   12.0000 	   38.6718
    1.5183 	   86.8640 	    3.0000 	   12.0000 	   39.0628
    1.6709 	   87.5960 	    3.0000 	   12.0000 	   39.4288
    1.6403 	   88.3900 	    3.0000 	   12.0000 	   39.8259
    1.5335 	   89.1500 	    3.0000 	   12.0000 	   40.2059
    1.3809 	   89.8760 	    3.0000 	   12.0000 	   40.5689
    1.5640 	   90.6800 	    3.0000 	   12.0000 	   40.9709
    1.5488 	   91.3760 	    3.0000 	   12.0000 	   41.3190
    1.5030 	   92.1480 	    3.0000 	   12.0000 	   41.7050
    1.3962 	   92.9140 	    3.0000 	   12.0000 	   42.0880
    1.3962 	   93.6700 	    3.0000 	   12.0000 	   42.4650
    1.3352 	   94.4780 	    3.0000 	   12.0000 	   42.8690
    1.2284 	   95.2240 	    3.0000 	   12.0000 	   43.2421
    1.1215 	   96.0060 	    3.0000 	   12.0000 	   43.6331
    1.1215 	   96.8100 	    3.0000 	   12.0000 	   44.0351
    1.2284 	   97.5540 	    3.0000 	   12.0000 	   44.4071
    1.0758 	   98.3420 	    3.0000 	   12.0000 	   44.8012
    1.0147 	   99.0980 	    3.0000 	   12.0000 	   45.1792
    1.0758 	   99.8400 	    3.0000 	   12.0000 	   45.5502
    1.1215 	  100.6580 	    3.0000 	   12.0000 	   45.9592
    0.9995 	  101.4160 	    3.0000 	   12.0000 	   46.3382
    1.1215 	  102.2340 	    3.0000 	   12.0000 	   46.7473
    1.0452 	  103.0380 	    3.0000 	   12.0000 	   47.1493
    0.9995 	  103.7880 	    3.0000 	   12.0000 	   47.5243
    0.9537 	  104.5240 	    3.0000 	   12.0000 	   47.8923
    0.8164 	  105.2800 	    3.0000 	   12.0000 	   48.2703
    0.8011 	  106.0680 	    3.0000 	   12.0000 	   48.6644
    0.7248 	  106.8800 	    3.0000 	   12.0000 	   49.0704
    0.6943 	  107.6700 	    3.0000 	   12.0000 	   49.4654
    0.7248 	  108.4920 	    3.0000 	   12.0000 	   49.8764
    0.6485 	  109.2620 	    3.0000 	   12.0000 	   50.2615
    0.6332 	  110.0440 	    3.0000 	   12.0000 	   50.6525
    0.7706 	  110.8780 	    3.0000 	   12.0000 	   51.0695
    0.5570 	  111.6380 	    3.0000 	   12.0000 	   51.4495
    0.6027 	  112.4820 	    3.0000 	   12.0000 	   51.8716
    0.4807 	  113.2760 	    3.0000 	   12.0000 	   52.2686
    0.5112 	  114.0640 	    3.0000 	   12.0000 	   52.6626
    0.5417 	  114.8780 	    3.0000 	   12.0000 	   53.0696
    0.3433 	  115.6480 	    3.0000 	   12.0000 	   53.4546
    0.3586 	  116.4720 	    3.0000 	   12.0000 	   53.8667
    0.2823 	  117.3960 	    3.0000 	   12.0000 	   54.3287
    0.3738 	  118.2020 	    3.0000 	   12.0000 	   54.7317
    0.1907 	  119.0180 	    3.0000 	   12.0000 	   55.1397
    0.2976 	  119.7920 	    3.0000 	   12.0000 	   55.5268
    0.3586 	  120.6280 	    3.0000 	   12.0000 	   55.9448
    0.3738 	  121.4160 	    3.0000 	   12.0000 	   56.3388
    0.3891 	  121.6940 	    3.0000 	   12.0000 	   56.4778