Folder: Smart-Fabrics/instron/deadline/bak/size/blue_15_1

File: blue_15_1_60_30_force.txt
Thayer School of Engineering        Instron 4442 Mechanical Testing System
7/8/2018 11:00:43 PM

  Force (N)	Extension (mm)	Not Used	Not Used	Not Used	     Hour	    Minute	    Second
    0.4349 	    0.5150 	   23.0000 	    1.0000 	    4.0474
    0.2976 	    0.9685 	   23.0000 	    1.0000 	    4.9545
    0.2976 	    1.4150 	   23.0000 	    1.0000 	    5.8475
    0.4044 	    1.7915 	   23.0000 	    1.0000 	    6.6006
    0.4349 	    2.0985 	   23.0000 	    1.0000 	    7.2146
    0.3281 	    2.4075 	   23.0000 	    1.0000 	    7.8327
    0.4654 	    2.7135 	   23.0000 	    1.0000 	    8.4447
    0.2823 	    3.0065 	   23.0000 	    1.0000 	    9.0297
    0.4349 	    3.3085 	   23.0000 	    1.0000 	    9.6338
    0.3281 	    3.6115 	   23.0000 	    1.0000 	   10.2398
    0.3891 	    3.9165 	   23.0000 	    1.0000 	   10.8498
    0.4196 	    4.2155 	   23.0000 	    1.0000 	   11.4479
    0.4807 	    4.5180 	   23.0000 	    1.0000 	   12.0529
    0.6180 	    4.8200 	   23.0000 	    1.0000 	   12.6569
    0.5722 	    5.1250 	   23.0000 	    1.0000 	   13.2670
    0.6332 	    5.4360 	   23.0000 	    1.0000 	   13.8890
    0.6638 	    5.7520 	   23.0000 	    1.0000 	   14.5210
    0.6790 	    6.0570 	   23.0000 	    1.0000 	   15.1311
    0.5722 	    6.3585 	   23.0000 	    1.0000 	   15.7341
    0.8011 	    6.6605 	   23.0000 	    1.0000 	   16.3381
    0.6332 	    6.9660 	   23.0000 	    1.0000 	   16.9492
    0.7401 	    7.2695 	   23.0000 	    1.0000 	   17.5562
    0.9384 	    7.5800 	   23.0000 	    1.0000 	   18.1772
    0.9842 	    7.8900 	   23.0000 	    1.0000 	   18.7973
    0.8316 	    8.2015 	   23.0000 	    1.0000 	   19.4203
    0.8469 	    8.5195 	   23.0000 	    1.0000 	   20.0564
    0.7401 	    8.8350 	   23.0000 	    1.0000 	   20.6874
    0.7858 	    9.1475 	   23.0000 	    1.0000 	   21.3124
    0.8621 	    9.4680 	   23.0000 	    1.0000 	   21.9535
    0.9384 	    9.7860 	   23.0000 	    1.0000 	   22.5895
    1.0147 	   10.1050 	   23.0000 	    1.0000 	   23.2275
    0.7401 	   10.4195 	   23.0000 	    1.0000 	   23.8566
    1.0605 	   10.7235 	   23.0000 	    1.0000 	   24.4646
    0.9537 	   11.0420 	   23.0000 	    1.0000 	   25.1016
    0.9079 	   11.3650 	   23.0000 	    1.0000 	   25.7477
    0.9537 	   11.6840 	   23.0000 	    1.0000 	   26.3847
    0.9537 	   12.0065 	   23.0000 	    1.0000 	   27.0298
    1.0758 	   12.3285 	   23.0000 	    1.0000 	   27.6738
    0.8316 	   12.6680 	   23.0000 	    1.0000 	   28.3528
    0.9995 	   12.9985 	   23.0000 	    1.0000 	   29.0139
    1.0758 	   13.3245 	   23.0000 	    1.0000 	   29.6659
    1.2894 	   13.6535 	   23.0000 	    1.0000 	   30.3239
    1.1673 	   13.9815 	   23.0000 	    1.0000 	   30.9800
    1.0452 	   14.3205 	   23.0000 	    1.0000 	   31.6580
    1.1215 	   14.6535 	   23.0000 	    1.0000 	   32.3241
    1.1215 	   14.9655 	   23.0000 	    1.0000 	   32.9481
    1.2741 	   15.2815 	   23.0000 	    1.0000 	   33.5801
    1.1063 	   15.6125 	   23.0000 	    1.0000 	   34.2422
    1.1978 	   15.9390 	   23.0000 	    1.0000 	   34.8952
    1.3046 	   16.2735 	   23.0000 	    1.0000 	   35.5642
    1.1673 	   16.6090 	   23.0000 	    1.0000 	   36.2353
    1.1978 	   16.9455 	   23.0000 	    1.0000 	   36.9083
    1.2436 	   17.2810 	   23.0000 	    1.0000 	   37.5794
    1.2284 	   17.6210 	   23.0000 	    1.0000 	   38.2594
    1.3809 	   17.9580 	   23.0000 	    1.0000 	   38.9334
    1.4115 	   18.2990 	   23.0000 	    1.0000 	   39.6155
    1.2741 	   18.6140 	   23.0000 	    1.0000 	   40.2455
    1.3352 	   18.9445 	   23.0000 	    1.0000 	   40.9065
    1.2436 	   19.2885 	   23.0000 	    1.0000 	   41.5946
    1.3962 	   19.6320 	   23.0000 	    1.0000 	   42.2816
    1.5335 	   19.9775 	   23.0000 	    1.0000 	   42.9727
    1.4725 	   20.3275 	   23.0000 	    1.0000 	   43.6727
    1.5030 	   20.6770 	   23.0000 	    1.0000 	   44.3707
    1.5488 	   21.0190 	   23.0000 	    1.0000 	   45.0548
    1.5640 	   21.3745 	   23.0000 	    1.0000 	   45.7658
    1.5793 	   21.7205 	   23.0000 	    1.0000 	   46.4579
    1.5030 	   22.0715 	   23.0000 	    1.0000 	   47.1599
    1.4420 	   22.4245 	   23.0000 	    1.0000 	   47.8659
    1.3046 	   22.7665 	   23.0000 	    1.0000 	   48.5500
    1.6556 	   23.1010 	   23.0000 	    1.0000 	   49.2190
    1.6861 	   23.4525 	   23.0000 	    1.0000 	   49.9221
    1.5946 	   23.7930 	   23.0000 	    1.0000 	   50.6031
    1.7929 	   24.1485 	   23.0000 	    1.0000 	   51.3141
    1.5335 	   24.5070 	   23.0000 	    1.0000 	   52.0312
    1.8082 	   24.8615 	   23.0000 	    1.0000 	   52.7402
    1.6709 	   25.1815 	   23.0000 	    1.0000 	   53.3803
    1.7166 	   25.5110 	   23.0000 	    1.0000 	   54.0393
    1.7777 	   25.8650 	   23.0000 	    1.0000 	   54.7473
    1.6861 	   26.2240 	   23.0000 	    1.0000 	   55.4654
    1.7929 	   26.5900 	   23.0000 	    1.0000 	   56.1974
    1.7166 	   26.9515 	   23.0000 	    1.0000 	   56.9205
    1.7624 	   27.3080 	   23.0000 	    1.0000 	   57.6335
    1.8997 	   27.6660 	   23.0000 	    1.0000 	   58.3495
    1.7624 	   28.0205 	   23.0000 	    1.0000 	   59.0586
    1.8692 	   28.3805 	   23.0000 	    1.0000 	   59.7786
    1.8540 	   28.7505 	   23.0000 	    2.0000 	    0.5187
    1.9608 	   29.1170 	   23.0000 	    2.0000 	    1.2517
    1.8997 	   29.4650 	   23.0000 	    2.0000 	    1.9467
    1.9303 	   29.8050 	   23.0000 	    2.0000 	    2.6268
    2.1134 	   30.1735 	   23.0000 	    2.0000 	    3.3638
    2.0523 	   30.5350 	   23.0000 	    2.0000 	    4.0869
    1.9303 	   30.8990 	   23.0000 	    2.0000 	    4.8149
    1.9913 	   31.2545 	   23.0000 	    2.0000 	    5.5260
    2.0371 	   31.6055 	   23.0000 	    2.0000 	    6.2280
    2.1134 	   31.9760 	   23.0000 	    2.0000 	    6.9690
    2.0523 	   32.3490 	   23.0000 	    2.0000 	    7.7151
    2.1897 	   32.7220 	   23.0000 	    2.0000 	    8.4611
    2.0218 	   33.0980 	   23.0000 	    2.0000 	    9.2132
    2.1592 	   33.4815 	   23.0000 	    2.0000 	    9.9802
    2.1286 	   33.8590 	   23.0000 	    2.0000 	   10.7353
    2.2660 	   34.2370 	   23.0000 	    2.0000 	   11.4913
    2.2049 	   34.6180 	   23.0000 	    2.0000 	   12.2533
    2.3728 	   34.9930 	   23.0000 	    2.0000 	   13.0034
    2.2507 	   35.3795 	   23.0000 	    2.0000 	   13.7764
    2.1592 	   35.7555 	   23.0000 	    2.0000 	   14.5285
    2.2049 	   36.1360 	   23.0000 	    2.0000 	   15.2895
    2.3880 	   36.5110 	   23.0000 	    2.0000 	   16.0396
    2.3423 	   36.8970 	   23.0000 	    2.0000 	   16.8116
    2.3117 	   37.2515 	   23.0000 	    2.0000 	   17.5206
    2.4033 	   37.6210 	   23.0000 	    2.0000 	   18.2597
    2.4948 	   38.0090 	   23.0000 	    2.0000 	   19.0347
    2.4338 	   38.3820 	   23.0000 	    2.0000 	   19.7808
    2.4796 	   38.7490 	   23.0000 	    2.0000 	   20.5148
    2.6627 	   39.1010 	   23.0000 	    2.0000 	   21.2188
    2.5711 	   39.4670 	   23.0000 	    2.0000 	   21.9509
    2.5101 	   39.8270 	   23.0000 	    2.0000 	   22.6709
    2.5101 	   40.1990 	   23.0000 	    2.0000 	   23.4150
    2.5559 	   40.5605 	   23.0000 	    2.0000 	   24.1380
    2.6474 	   40.9260 	   23.0000 	    2.0000 	   24.8691
    2.5101 	   41.3205 	   23.0000 	    2.0000 	   25.6581
    2.5864 	   41.7095 	   23.0000 	    2.0000 	   26.4361
    2.8305 	   42.0985 	   23.0000 	    2.0000 	   27.2142
    2.7543 	   42.4815 	   23.0000 	    2.0000 	   27.9802
    2.7543 	   42.8720 	   23.0000 	    2.0000 	   28.7613
    2.7237 	   43.2720 	   23.0000 	    2.0000 	   29.5613
    2.8305 	   43.6710 	   23.0000 	    2.0000 	   30.3594
    2.7848 	   44.0695 	   23.0000 	    2.0000 	   31.1564
    2.6932 	   44.4685 	   23.0000 	    2.0000 	   31.9545
    2.8763 	   44.8560 	   23.0000 	    2.0000 	   32.7295
    2.5254 	   45.2615 	   23.0000 	    2.0000 	   33.5406
    2.9679 	   45.6595 	   23.0000 	    2.0000 	   34.3366
    2.6627 	   46.0365 	   23.0000 	    2.0000 	   35.0906
    2.9984 	   46.4185 	   23.0000 	    2.0000 	   35.8547
    3.0442 	   46.7770 	   23.0000 	    2.0000 	   36.5707
    3.0594 	   47.1500 	   23.0000 	    2.0000 	   37.3168
    3.1357 	   47.5280 	   23.0000 	    2.0000 	   38.0728
    3.1052 	   47.9130 	   23.0000 	    2.0000 	   38.8429
    3.3646 	   48.3210 	   23.0000 	    2.0000 	   39.6589
    3.0900 	   48.7150 	   23.0000 	    2.0000 	   40.4469
    3.1815 	   49.1105 	   23.0000 	    2.0000 	   41.2380
    3.2425 	   49.5020 	   23.0000 	    2.0000 	   42.0210
    3.3341 	   49.8945 	   23.0000 	    2.0000 	   42.8061
    3.2883 	   50.3040 	   23.0000 	    2.0000 	   43.6251
    3.3188 	   50.7030 	   23.0000 	    2.0000 	   44.4232
    3.3646 	   51.1040 	   23.0000 	    2.0000 	   45.2252
    3.3799 	   51.5170 	   23.0000 	    2.0000 	   46.0513
    3.6088 	   51.9305 	   23.0000 	    2.0000 	   46.8783
    3.7766 	   52.3420 	   23.0000 	    2.0000 	   47.7014
    3.4714 	   52.7575 	   23.0000 	    2.0000 	   48.5324
    3.2425 	   53.1640 	   23.0000 	    2.0000 	   49.3455
    3.4867 	   53.5785 	   23.0000 	    2.0000 	   50.1745
    3.8224 	   53.9890 	   23.0000 	    2.0000 	   50.9956
    3.6545 	   54.3670 	   23.0000 	    2.0000 	   51.7516
    3.7919 	   54.7725 	   23.0000 	    2.0000 	   52.5626
    3.7308 	   55.2045 	   23.0000 	    2.0000 	   53.4267
    3.8987 	   55.6140 	   23.0000 	    2.0000 	   54.2447
    3.9597 	   56.0295 	   23.0000 	    2.0000 	   55.0758
    3.9445 	   56.4530 	   23.0000 	    2.0000 	   55.9228
    3.9292 	   56.8570 	   23.0000 	    2.0000 	   56.7309
    4.1123 	   57.2315 	   23.0000 	    2.0000 	   57.4799
    3.9902 	   57.6040 	   23.0000 	    2.0000 	   58.2250
    4.0665 	   57.9795 	   23.0000 	    2.0000 	   58.9760
    4.1276 	   58.3970 	   23.0000 	    2.0000 	   59.8111
    4.3870 	   58.8110 	   23.0000 	    3.0000 	    0.6391
    4.3412 	   59.2305 	   23.0000 	    3.0000 	    1.4782
    4.2496 	   59.6295 	   23.0000 	    3.0000 	    2.2762
    4.4022 	   59.9145 	   23.0000 	    3.0000 	    2.8462