Folder: Smart-Fabrics/instron/independence/direction/bad_l15w2

File: b_l15w2_65_30.txt
Thayer School of Engineering        Instron 4442 Mechanical Testing System
7/5/2018 9:58:57 PM

  Force (N)	Extension (mm)	Not Used	Not Used	Not Used	     Hour	    Minute	    Second
    0.7095 	    0.5135 	   21.0000 	   59.0000 	   15.9346
    0.4959 	    0.9855 	   21.0000 	   59.0000 	   16.8787
    0.3433 	    1.4475 	   21.0000 	   59.0000 	   17.8027
    0.6485 	    1.8495 	   21.0000 	   59.0000 	   18.6068
    0.5570 	    2.1755 	   21.0000 	   59.0000 	   19.2588
    0.8011 	    2.4945 	   21.0000 	   59.0000 	   19.8968
    0.6485 	    2.8135 	   21.0000 	   59.0000 	   20.5349
    0.5417 	    3.1265 	   21.0000 	   59.0000 	   21.1609
    0.6790 	    3.4435 	   21.0000 	   59.0000 	   21.7949
    0.6332 	    3.7720 	   21.0000 	   59.0000 	   22.4520
    0.5875 	    4.0890 	   21.0000 	   59.0000 	   23.0850
    0.5875 	    4.4080 	   21.0000 	   59.0000 	   23.7231
    0.6180 	    4.7275 	   21.0000 	   59.0000 	   24.3621
    0.6485 	    5.0495 	   21.0000 	   59.0000 	   25.0061
    0.8316 	    5.3735 	   21.0000 	   59.0000 	   25.6542
    0.7401 	    5.6945 	   21.0000 	   59.0000 	   26.2962
    0.7553 	    6.0235 	   21.0000 	   59.0000 	   26.9542
    0.7553 	    6.3545 	   21.0000 	   59.0000 	   27.6163
    0.7706 	    6.6840 	   21.0000 	   59.0000 	   28.2753
    0.9232 	    7.0160 	   21.0000 	   59.0000 	   28.9394
    0.7553 	    7.3470 	   21.0000 	   59.0000 	   29.6014
    0.7553 	    7.6765 	   21.0000 	   59.0000 	   30.2604
    0.6180 	    8.0065 	   21.0000 	   59.0000 	   30.9205
    0.7401 	    8.3380 	   21.0000 	   59.0000 	   31.5835
    0.9079 	    8.6740 	   21.0000 	   59.0000 	   32.2555
    0.7401 	    9.0105 	   21.0000 	   59.0000 	   32.9286
    0.5570 	    9.3485 	   21.0000 	   59.0000 	   33.6046
    0.8164 	    9.6680 	   21.0000 	   59.0000 	   34.2437
    0.6943 	   10.0145 	   21.0000 	   59.0000 	   34.9367
    0.8316 	   10.3515 	   21.0000 	   59.0000 	   35.6107
    0.7858 	   10.7000 	   21.0000 	   59.0000 	   36.3078
    0.9842 	   11.0505 	   21.0000 	   59.0000 	   37.0088
    0.8011 	   11.3990 	   21.0000 	   59.0000 	   37.7059
    0.8469 	   11.7460 	   21.0000 	   59.0000 	   38.3999
    0.9232 	   12.1085 	   21.0000 	   59.0000 	   39.1249
    0.8316 	   12.4625 	   21.0000 	   59.0000 	   39.8330
    0.8621 	   12.8135 	   21.0000 	   59.0000 	   40.5340
    0.8621 	   13.1685 	   21.0000 	   59.0000 	   41.2441
    0.9384 	   13.5060 	   21.0000 	   59.0000 	   41.9191
    0.9079 	   13.8675 	   21.0000 	   59.0000 	   42.6421
    0.8164 	   14.2285 	   21.0000 	   59.0000 	   43.3642
    0.9384 	   14.5940 	   21.0000 	   59.0000 	   44.0952
    0.8927 	   14.9380 	   21.0000 	   59.0000 	   44.7833
    0.8927 	   15.3060 	   21.0000 	   59.0000 	   45.5193
    0.7706 	   15.6730 	   21.0000 	   59.0000 	   46.2533
    1.0452 	   16.0405 	   21.0000 	   59.0000 	   46.9884
    0.7858 	   16.4065 	   21.0000 	   59.0000 	   47.7204
    0.9232 	   16.7775 	   21.0000 	   59.0000 	   48.4625
    0.9079 	   17.1545 	   21.0000 	   59.0000 	   49.2165
    0.8621 	   17.5230 	   21.0000 	   59.0000 	   49.9536
    0.9384 	   17.8920 	   21.0000 	   59.0000 	   50.6916
    0.7401 	   18.2585 	   21.0000 	   59.0000 	   51.4246
    0.9232 	   18.6315 	   21.0000 	   59.0000 	   52.1707
    0.9232 	   19.0085 	   21.0000 	   59.0000 	   52.9247
    0.9689 	   19.3800 	   21.0000 	   59.0000 	   53.6678
    1.0452 	   19.7620 	   21.0000 	   59.0000 	   54.4318
    0.9232 	   20.1380 	   21.0000 	   59.0000 	   55.1839
    0.9995 	   20.5120 	   21.0000 	   59.0000 	   55.9319
    0.9384 	   20.8680 	   21.0000 	   59.0000 	   56.6439
    1.1215 	   21.2480 	   21.0000 	   59.0000 	   57.4040
    1.0147 	   21.6305 	   21.0000 	   59.0000 	   58.1680
    0.9384 	   21.9990 	   21.0000 	   59.0000 	   58.9051
    1.1673 	   22.3560 	   21.0000 	   59.0000 	   59.6191
    1.0605 	   22.7570 	   22.0000 	    0.0000 	    0.4212
    1.0452 	   23.1450 	   22.0000 	    0.0000 	    1.1972
    1.0147 	   23.5110 	   22.0000 	    0.0000 	    1.9292
    1.1673 	   23.9030 	   22.0000 	    0.0000 	    2.7133
    1.1368 	   24.2845 	   22.0000 	    0.0000 	    3.4763
    1.1521 	   24.6275 	   22.0000 	    0.0000 	    4.1624
    1.1368 	   24.9810 	   22.0000 	    0.0000 	    4.8694
    1.2284 	   25.3520 	   22.0000 	    0.0000 	    5.6115
    1.2436 	   25.7285 	   22.0000 	    0.0000 	    6.3645
    1.0605 	   26.1135 	   22.0000 	    0.0000 	    7.1345
    1.2589 	   26.4630 	   22.0000 	    0.0000 	    7.8336
    1.1063 	   26.8250 	   22.0000 	    0.0000 	    8.5576
    1.2284 	   27.2175 	   22.0000 	    0.0000 	    9.3427
    1.2894 	   27.6165 	   22.0000 	    0.0000 	   10.1407
    1.1521 	   28.0145 	   22.0000 	    0.0000 	   10.9368
    1.2741 	   28.3950 	   22.0000 	    0.0000 	   11.6978
    1.2131 	   28.7605 	   22.0000 	    0.0000 	   12.4288
    1.1521 	   29.1415 	   22.0000 	    0.0000 	   13.1909
    1.2741 	   29.5170 	   22.0000 	    0.0000 	   13.9419
    1.3046 	   29.9015 	   22.0000 	    0.0000 	   14.7110
    1.2436 	   30.2825 	   22.0000 	    0.0000 	   15.4720
    1.3199 	   30.6830 	   22.0000 	    0.0000 	   16.2731
    1.0758 	   31.0805 	   22.0000 	    0.0000 	   17.0681
    1.3199 	   31.4770 	   22.0000 	    0.0000 	   17.8612
    1.3504 	   31.8570 	   22.0000 	    0.0000 	   18.6212
    1.2894 	   32.2510 	   22.0000 	    0.0000 	   19.4092
    1.2894 	   32.6420 	   22.0000 	    0.0000 	   20.1913
    1.3809 	   33.0150 	   22.0000 	    0.0000 	   20.9373
    1.3657 	   33.3925 	   22.0000 	    0.0000 	   21.6924
    1.4725 	   33.7700 	   22.0000 	    0.0000 	   22.4474
    1.5335 	   34.1875 	   22.0000 	    0.0000 	   23.2825
    1.4420 	   34.5960 	   22.0000 	    0.0000 	   24.0995
    1.4267 	   35.0090 	   22.0000 	    0.0000 	   24.9256
    1.5488 	   35.4175 	   22.0000 	    0.0000 	   25.7426
    1.5335 	   35.8145 	   22.0000 	    0.0000 	   26.5367
    1.5488 	   36.2265 	   22.0000 	    0.0000 	   27.3607
    1.7624 	   36.6290 	   22.0000 	    0.0000 	   28.1657
    1.5488 	   37.0230 	   22.0000 	    0.0000 	   28.9538
    1.6098 	   37.3970 	   22.0000 	    0.0000 	   29.7018
    1.5030 	   37.7800 	   22.0000 	    0.0000 	   30.4679
    1.7319 	   38.1825 	   22.0000 	    0.0000 	   31.2729
    1.7777 	   38.5985 	   22.0000 	    0.0000 	   32.1050
    1.6709 	   39.0220 	   22.0000 	    0.0000 	   32.9510
    1.8082 	   39.4110 	   22.0000 	    0.0000 	   33.7291
    1.6556 	   39.7855 	   22.0000 	    0.0000 	   34.4781
    1.8387 	   40.1905 	   22.0000 	    0.0000 	   35.2882
    1.8235 	   40.5880 	   22.0000 	    0.0000 	   36.0832
    1.8235 	   40.9750 	   22.0000 	    0.0000 	   36.8572
    1.9913 	   41.3760 	   22.0000 	    0.0000 	   37.6593
    1.7777 	   41.7850 	   22.0000 	    0.0000 	   38.4773
    2.0523 	   42.2110 	   22.0000 	    0.0000 	   39.3294
    1.8997 	   42.6280 	   22.0000 	    0.0000 	   40.1634
    1.8997 	   43.0365 	   22.0000 	    0.0000 	   40.9805
    2.0066 	   43.4475 	   22.0000 	    0.0000 	   41.8025
    2.0676 	   43.8315 	   22.0000 	    0.0000 	   42.5706
    2.0829 	   44.2360 	   22.0000 	    0.0000 	   43.3796
    2.0066 	   44.6285 	   22.0000 	    0.0000 	   44.1647
    2.2354 	   45.0305 	   22.0000 	    0.0000 	   44.9687
    1.9913 	   45.4320 	   22.0000 	    0.0000 	   45.7718
    2.1134 	   45.8325 	   22.0000 	    0.0000 	   46.5728
    2.1744 	   46.2395 	   22.0000 	    0.0000 	   47.3868
    2.2507 	   46.6385 	   22.0000 	    0.0000 	   48.1849
    2.3423 	   47.0400 	   22.0000 	    0.0000 	   48.9879
    2.3728 	   47.4355 	   22.0000 	    0.0000 	   49.7790
    2.2812 	   47.8560 	   22.0000 	    0.0000 	   50.6190
    2.4643 	   48.2735 	   22.0000 	    0.0000 	   51.4541
    2.4948 	   48.6835 	   22.0000 	    0.0000 	   52.2741
    2.4033 	   49.1040 	   22.0000 	    0.0000 	   53.1152
    2.5559 	   49.5245 	   22.0000 	    0.0000 	   53.9562
    2.5406 	   49.9295 	   22.0000 	    0.0000 	   54.7663
    2.5711 	   50.3495 	   22.0000 	    0.0000 	   55.6063
    2.6017 	   50.7780 	   22.0000 	    0.0000 	   56.4634
    2.6627 	   51.1935 	   22.0000 	    0.0000 	   57.2944
    2.3880 	   51.6010 	   22.0000 	    0.0000 	   58.1095
    2.7390 	   52.0135 	   22.0000 	    0.0000 	   58.9345
    2.7085 	   52.4060 	   22.0000 	    0.0000 	   59.7196
    2.8763 	   52.8210 	   22.0000 	    1.0000 	    0.5496
    2.7848 	   53.2545 	   22.0000 	    1.0000 	    1.4166
    2.8458 	   53.6800 	   22.0000 	    1.0000 	    2.2677
    2.9526 	   54.1125 	   22.0000 	    1.0000 	    3.1327
    2.9831 	   54.5365 	   22.0000 	    1.0000 	    3.9808
    3.1815 	   54.9415 	   22.0000 	    1.0000 	    4.7908
    3.0747 	   55.3585 	   22.0000 	    1.0000 	    5.6249
    3.0594 	   55.7945 	   22.0000 	    1.0000 	    6.4969
    3.1662 	   56.2300 	   22.0000 	    1.0000 	    7.3680
    3.1662 	   56.6470 	   22.0000 	    1.0000 	    8.2010
    3.1968 	   57.0930 	   22.0000 	    1.0000 	    9.0931
    3.2578 	   57.5335 	   22.0000 	    1.0000 	    9.9741
    3.2120 	   57.9585 	   22.0000 	    1.0000 	   10.8242
    3.3036 	   58.3725 	   22.0000 	    1.0000 	   11.6522
    3.5782 	   58.8075 	   22.0000 	    1.0000 	   12.5223
    3.3951 	   59.2455 	   22.0000 	    1.0000 	   13.3983
    3.5477 	   59.6620 	   22.0000 	    1.0000 	   14.2314
    3.4714 	   60.0985 	   22.0000 	    1.0000 	   15.1044
    3.5019 	   60.5285 	   22.0000 	    1.0000 	   15.9645
    3.5630 	   60.9615 	   22.0000 	    1.0000 	   16.8305
    3.6545 	   61.3785 	   22.0000 	    1.0000 	   17.6646
    3.6698 	   61.8165 	   22.0000 	    1.0000 	   18.5406
    3.8529 	   62.2550 	   22.0000 	    1.0000 	   19.4177
    3.8529 	   62.6810 	   22.0000 	    1.0000 	   20.2697
    3.8376 	   63.0900 	   22.0000 	    1.0000 	   21.0878
    3.9750 	   63.5305 	   22.0000 	    1.0000 	   21.9688
    3.9139 	   63.9520 	   22.0000 	    1.0000 	   22.8119
    3.9292 	   64.3955 	   22.0000 	    1.0000 	   23.6989
    3.9750 	   64.8265 	   22.0000 	    1.0000 	   24.5610
    3.7308 	   65.0805 	   22.0000 	    1.0000 	   25.0680