Folder: Smart-Fabrics/instron/independence/direction/l15w2

File: l15w2_65_30.txt
Thayer School of Engineering        Instron 4442 Mechanical Testing System
7/4/2018 8:16:22 PM

  Force (N)	Extension (mm)	Not Used	Not Used	Not Used	     Hour	    Minute	    Second
    0.3433 	    0.5125 	   20.0000 	   17.0000 	   18.7805
    0.2976 	    1.0230 	   20.0000 	   17.0000 	   19.8015
    0.2518 	    1.4960 	   20.0000 	   17.0000 	   20.7476
    0.2365 	    1.8540 	   20.0000 	   17.0000 	   21.4626
    0.0229 	    2.1990 	   20.0000 	   17.0000 	   22.1527
    0.3281 	    2.5170 	   20.0000 	   17.0000 	   22.7887
    0.1144 	    2.8340 	   20.0000 	   17.0000 	   23.4227
    0.2976 	    3.1470 	   20.0000 	   17.0000 	   24.0488
    0.3128 	    3.4685 	   20.0000 	   17.0000 	   24.6918
    0.3433 	    3.7870 	   20.0000 	   17.0000 	   25.3289
    0.2060 	    4.1020 	   20.0000 	   17.0000 	   25.9589
    0.5112 	    4.4155 	   20.0000 	   17.0000 	   26.5859
    0.3128 	    4.7370 	   20.0000 	   17.0000 	   27.2290
    0.3281 	    5.0540 	   20.0000 	   17.0000 	   27.8630
    0.2976 	    5.3740 	   20.0000 	   17.0000 	   28.5030
    0.3586 	    5.6935 	   20.0000 	   17.0000 	   29.1421
    0.3738 	    6.0175 	   20.0000 	   17.0000 	   29.7901
    0.2976 	    6.3465 	   20.0000 	   17.0000 	   30.4482
    0.2823 	    6.6665 	   20.0000 	   17.0000 	   31.0882
    0.2518 	    6.9750 	   20.0000 	   17.0000 	   31.7052
    0.3891 	    7.3035 	   20.0000 	   17.0000 	   32.3623
    0.3281 	    7.6380 	   20.0000 	   17.0000 	   33.0313
    0.2823 	    7.9685 	   20.0000 	   17.0000 	   33.6923
    0.4196 	    8.2995 	   20.0000 	   17.0000 	   34.3544
    0.4349 	    8.6385 	   20.0000 	   17.0000 	   35.0324
    0.4044 	    8.9695 	   20.0000 	   17.0000 	   35.6945
    0.3738 	    9.2885 	   20.0000 	   17.0000 	   36.3325
    0.3281 	    9.6240 	   20.0000 	   17.0000 	   37.0035
    0.3891 	    9.9545 	   20.0000 	   17.0000 	   37.6646
    0.4044 	   10.2595 	   20.0000 	   17.0000 	   38.2746
    0.4959 	   10.6110 	   20.0000 	   17.0000 	   38.9766
    0.4044 	   10.9585 	   20.0000 	   17.0000 	   39.6717
   -0.0229 	   11.2855 	   20.0000 	   17.0000 	   40.3257
    0.1602 	   11.6220 	   20.0000 	   17.0000 	   40.9988
    0.4501 	   11.9725 	   20.0000 	   17.0000 	   41.6998
    0.3891 	   12.3215 	   20.0000 	   17.0000 	   42.3978
    0.5722 	   12.6635 	   20.0000 	   17.0000 	   43.0819
    0.3433 	   13.0120 	   20.0000 	   17.0000 	   43.7789
    0.5112 	   13.3575 	   20.0000 	   17.0000 	   44.4690
    0.4349 	   13.7040 	   20.0000 	   17.0000 	   45.1630
    0.3433 	   14.0430 	   20.0000 	   17.0000 	   45.8410
    0.4807 	   14.3875 	   20.0000 	   17.0000 	   46.5301
    0.3891 	   14.7165 	   20.0000 	   17.0000 	   47.1881
    0.4349 	   15.0615 	   20.0000 	   17.0000 	   47.8781
    0.4807 	   15.3995 	   20.0000 	   17.0000 	   48.5542
    0.4807 	   15.7385 	   20.0000 	   17.0000 	   49.2322
    0.4349 	   16.1045 	   20.0000 	   17.0000 	   49.9643
    0.5570 	   16.4705 	   20.0000 	   17.0000 	   50.6963
    0.5112 	   16.8340 	   20.0000 	   17.0000 	   51.4234
    0.1297 	   17.2000 	   20.0000 	   17.0000 	   52.1554
    0.4196 	   17.5815 	   20.0000 	   17.0000 	   52.9184
    0.6332 	   17.9460 	   20.0000 	   17.0000 	   53.6475
    0.5112 	   18.3135 	   20.0000 	   17.0000 	   54.3825
    0.4044 	   18.6860 	   20.0000 	   17.0000 	   55.1276
    0.4196 	   19.0620 	   20.0000 	   17.0000 	   55.8786
    0.4959 	   19.4280 	   20.0000 	   17.0000 	   56.6106
    0.2670 	   19.8130 	   20.0000 	   17.0000 	   57.3807
    0.6332 	   20.1960 	   20.0000 	   17.0000 	   58.1467
    0.6180 	   20.5705 	   20.0000 	   17.0000 	   58.8958
    0.4196 	   20.9445 	   20.0000 	   17.0000 	   59.6438
    0.5570 	   21.3135 	   20.0000 	   18.0000 	    0.3819
    0.6485 	   21.6880 	   20.0000 	   18.0000 	    1.1309
    0.5417 	   22.0695 	   20.0000 	   18.0000 	    1.8939
    0.4654 	   22.4550 	   20.0000 	   18.0000 	    2.6650
    0.5417 	   22.8415 	   20.0000 	   18.0000 	    3.4380
    0.6790 	   23.2195 	   20.0000 	   18.0000 	    4.1941
    0.4959 	   23.5855 	   20.0000 	   18.0000 	    4.9261
    0.5417 	   23.9740 	   20.0000 	   18.0000 	    5.7032
    0.6790 	   24.3535 	   20.0000 	   18.0000 	    6.4622
    0.3433 	   24.7095 	   20.0000 	   18.0000 	    7.1743
    0.6027 	   25.0815 	   20.0000 	   18.0000 	    7.9183
    0.3433 	   25.4730 	   20.0000 	   18.0000 	    8.7013
    0.5570 	   25.8480 	   20.0000 	   18.0000 	    9.4514
    0.6943 	   26.2135 	   20.0000 	   18.0000 	   10.1824
    0.6180 	   26.6100 	   20.0000 	   18.0000 	   10.9755
    0.6027 	   27.0010 	   20.0000 	   18.0000 	   11.7575
    0.5417 	   27.4010 	   20.0000 	   18.0000 	   12.5576
    0.5722 	   27.7905 	   20.0000 	   18.0000 	   13.3356
    0.6943 	   28.1695 	   20.0000 	   18.0000 	   14.0936
    0.6790 	   28.5460 	   20.0000 	   18.0000 	   14.8467
    0.7706 	   28.9485 	   20.0000 	   18.0000 	   15.6517
    0.5417 	   29.3465 	   20.0000 	   18.0000 	   16.4478
    0.6332 	   29.7565 	   20.0000 	   18.0000 	   17.2678
    0.5722 	   30.1610 	   20.0000 	   18.0000 	   18.0769
    0.6485 	   30.5640 	   20.0000 	   18.0000 	   18.8829
    0.7858 	   30.9725 	   20.0000 	   18.0000 	   19.7000
    0.6790 	   31.3665 	   20.0000 	   18.0000 	   20.4880
    0.8011 	   31.7565 	   20.0000 	   18.0000 	   21.2681
    0.4044 	   32.1380 	   20.0000 	   18.0000 	   22.0311
    0.6027 	   32.5415 	   20.0000 	   18.0000 	   22.8381
    0.6943 	   32.9425 	   20.0000 	   18.0000 	   23.6402
    0.6485 	   33.3355 	   20.0000 	   18.0000 	   24.4262
    0.6943 	   33.7360 	   20.0000 	   18.0000 	   25.2273
    0.5112 	   34.1395 	   20.0000 	   18.0000 	   26.0343
    0.6027 	   34.5600 	   20.0000 	   18.0000 	   26.8754
    0.6485 	   34.9555 	   20.0000 	   18.0000 	   27.6664
    0.3891 	   35.3520 	   20.0000 	   18.0000 	   28.4595
    0.7858 	   35.7690 	   20.0000 	   18.0000 	   29.2935
    0.4654 	   36.1955 	   20.0000 	   18.0000 	   30.1466
    0.7248 	   36.6045 	   20.0000 	   18.0000 	   30.9636
    0.7401 	   37.0220 	   20.0000 	   18.0000 	   31.7987
    0.7858 	   37.4360 	   20.0000 	   18.0000 	   32.6267
    0.7095 	   37.8580 	   20.0000 	   18.0000 	   33.4708
    0.7248 	   38.2735 	   20.0000 	   18.0000 	   34.3018
    0.6790 	   38.7110 	   20.0000 	   18.0000 	   35.1769
    0.9995 	   39.1355 	   20.0000 	   18.0000 	   36.0259
    0.8164 	   39.5435 	   20.0000 	   18.0000 	   36.8419
    0.7095 	   39.9690 	   20.0000 	   18.0000 	   37.6930
    0.7706 	   40.3925 	   20.0000 	   18.0000 	   38.5400
    0.7858 	   40.8195 	   20.0000 	   18.0000 	   39.3941
    0.8469 	   41.2425 	   20.0000 	   18.0000 	   40.2401
    0.7401 	   41.6590 	   20.0000 	   18.0000 	   41.0732
    1.0300 	   42.0665 	   20.0000 	   18.0000 	   41.8882
    0.8774 	   42.5020 	   20.0000 	   18.0000 	   42.7593
    0.8469 	   42.9390 	   20.0000 	   18.0000 	   43.6333
    0.7858 	   43.3735 	   20.0000 	   18.0000 	   44.5024
    0.7248 	   43.8050 	   20.0000 	   18.0000 	   45.3654
    0.5264 	   44.2310 	   20.0000 	   18.0000 	   46.2175
    0.8469 	   44.6705 	   20.0000 	   18.0000 	   47.0965
    0.9232 	   45.1075 	   20.0000 	   18.0000 	   47.9706
    0.8621 	   45.5315 	   20.0000 	   18.0000 	   48.8176
    0.8164 	   45.9485 	   20.0000 	   18.0000 	   49.6517
    0.9384 	   46.3800 	   20.0000 	   18.0000 	   50.5147
    0.9232 	   46.8125 	   20.0000 	   18.0000 	   51.3798
    0.8164 	   47.2355 	   20.0000 	   18.0000 	   52.2258
    0.9537 	   47.6630 	   20.0000 	   18.0000 	   53.0809
    0.8621 	   48.1040 	   20.0000 	   18.0000 	   53.9629
    0.8927 	   48.5355 	   20.0000 	   18.0000 	   54.8260
    0.9232 	   48.9625 	   20.0000 	   18.0000 	   55.6800
    0.9232 	   49.4030 	   20.0000 	   18.0000 	   56.5611
    0.7248 	   49.8475 	   20.0000 	   18.0000 	   57.4501
    0.9079 	   50.2915 	   20.0000 	   18.0000 	   58.3382
    1.0452 	   50.7290 	   20.0000 	   18.0000 	   59.2132
    0.8927 	   51.1760 	   20.0000 	   19.0000 	    0.1073
    0.7553 	   51.6195 	   20.0000 	   19.0000 	    0.9943
    1.0300 	   52.0715 	   20.0000 	   19.0000 	    1.8984
    1.0452 	   52.5045 	   20.0000 	   19.0000 	    2.7644
    0.8927 	   52.9280 	   20.0000 	   19.0000 	    3.6115
    0.6790 	   53.3790 	   20.0000 	   19.0000 	    4.5135
    0.9537 	   53.8310 	   20.0000 	   19.0000 	    5.4176
    0.9537 	   54.2735 	   20.0000 	   19.0000 	    6.3016
    0.9232 	   54.7135 	   20.0000 	   19.0000 	    7.1817
    0.9079 	   55.1580 	   20.0000 	   19.0000 	    8.0707
    1.0147 	   55.6165 	   20.0000 	   19.0000 	    8.9878
    1.1215 	   56.0740 	   20.0000 	   19.0000 	    9.9028
    0.8316 	   56.5170 	   20.0000 	   19.0000 	   10.7889
    1.0910 	   56.9655 	   20.0000 	   19.0000 	   11.6859
    1.1215 	   57.4225 	   20.0000 	   19.0000 	   12.6000
    0.9995 	   57.8830 	   20.0000 	   19.0000 	   13.5210
    1.1063 	   58.3385 	   20.0000 	   19.0000 	   14.4321
    1.1978 	   58.8050 	   20.0000 	   19.0000 	   15.3652
    1.0300 	   59.2630 	   20.0000 	   19.0000 	   16.2812
    1.0910 	   59.7295 	   20.0000 	   19.0000 	   17.2143
    0.9079 	   60.1585 	   20.0000 	   19.0000 	   18.0723
    1.1063 	   60.5935 	   20.0000 	   19.0000 	   18.9424
    1.1521 	   61.0190 	   20.0000 	   19.0000 	   19.7934
    1.1978 	   61.4875 	   20.0000 	   19.0000 	   20.7305
    1.0910 	   61.9510 	   20.0000 	   19.0000 	   21.6575
    1.0758 	   62.3900 	   20.0000 	   19.0000 	   22.5356
    1.2131 	   62.8305 	   20.0000 	   19.0000 	   23.4156
    1.0605 	   63.2720 	   20.0000 	   19.0000 	   24.2987
    1.1978 	   63.7080 	   20.0000 	   19.0000 	   25.1707
    1.1215 	   64.1465 	   20.0000 	   19.0000 	   26.0478
    1.1826 	   64.5855 	   20.0000 	   19.0000 	   26.9258
    1.2589 	   64.9965 	   20.0000 	   19.0000 	   27.7479