Folder: Smart-Fabrics/instron/independence/relaxation/bad_l15w3_40_30_pre10 (part 2)

File: b_l15w3_40_60_stop1min_pre10.txt
Thayer School of Engineering        Instron 4442 Mechanical Testing System
7/5/2018 2:45:18 AM

  Force (N)	Extension (mm)	Not Used	Not Used	Not Used	     Hour	    Minute	    Second
    0.4654 	    1.0260 	    2.0000 	   46.0000 	   13.3441
    0.5264 	    1.8420 	    2.0000 	   46.0000 	   14.1602
    0.5875 	    2.7200 	    2.0000 	   46.0000 	   15.0382
    0.5417 	    3.4870 	    2.0000 	   46.0000 	   15.8053
    0.7401 	    4.1010 	    2.0000 	   46.0000 	   16.4193
    0.8011 	    4.7530 	    2.0000 	   46.0000 	   17.0704
    0.6332 	    5.3780 	    2.0000 	   46.0000 	   17.6954
    0.6790 	    5.9710 	    2.0000 	   46.0000 	   18.2884
    0.6485 	    6.5720 	    2.0000 	   46.0000 	   18.8895
    0.7095 	    7.1670 	    2.0000 	   46.0000 	   19.4845
    0.4654 	    7.7700 	    2.0000 	   46.0000 	   20.0875
    0.8011 	    8.3590 	    2.0000 	   46.0000 	   20.6766
    0.6485 	    8.9670 	    2.0000 	   46.0000 	   21.2846
    0.7095 	    9.5990 	    2.0000 	   46.0000 	   21.9166
    0.8011 	   10.2040 	    2.0000 	   46.0000 	   22.5217
    0.7858 	   10.8080 	    2.0000 	   46.0000 	   23.1257
    0.8316 	   11.4190 	    2.0000 	   46.0000 	   23.7367
    0.7553 	   12.0270 	    2.0000 	   46.0000 	   24.3448
    0.9079 	   12.6390 	    2.0000 	   46.0000 	   24.9568
    0.9384 	   13.2490 	    2.0000 	   46.0000 	   25.5668
    0.9995 	   13.8770 	    2.0000 	   46.0000 	   26.1949
    0.9232 	   14.4890 	    2.0000 	   46.0000 	   26.8069
    0.8164 	   15.1100 	    2.0000 	   46.0000 	   27.4279
    0.9537 	   15.7380 	    2.0000 	   46.0000 	   28.0560
    1.0910 	   16.3930 	    2.0000 	   46.0000 	   28.7110
    1.0452 	   17.0060 	    2.0000 	   46.0000 	   29.3241
    1.0605 	   17.6410 	    2.0000 	   46.0000 	   29.9591
    1.1368 	   18.2740 	    2.0000 	   46.0000 	   30.5921
    1.1521 	   18.8980 	    2.0000 	   46.0000 	   31.2162
    1.2436 	   19.5210 	    2.0000 	   46.0000 	   31.8392
    1.2436 	   20.1500 	    2.0000 	   46.0000 	   32.4682
    1.3046 	   20.7800 	    2.0000 	   46.0000 	   33.0983
    1.0452 	   21.4120 	    2.0000 	   46.0000 	   33.7303
    1.4878 	   21.9980 	    2.0000 	   46.0000 	   34.3163
    1.3504 	   22.6030 	    2.0000 	   46.0000 	   34.9194
    1.5793 	   23.2080 	    2.0000 	   46.0000 	   35.5254
    1.6709 	   23.8380 	    2.0000 	   46.0000 	   36.1554
    1.5640 	   24.4440 	    2.0000 	   46.0000 	   36.7615
    1.5335 	   25.0660 	    2.0000 	   46.0000 	   37.3835
    1.7472 	   25.7180 	    2.0000 	   46.0000 	   38.0356
    1.7472 	   26.3310 	    2.0000 	   46.0000 	   38.6486
    1.8235 	   26.9020 	    2.0000 	   46.0000 	   39.2196
    1.6556 	   27.4830 	    2.0000 	   46.0000 	   39.8007
    1.7166 	   28.0710 	    2.0000 	   46.0000 	   40.3887
    1.9760 	   28.7210 	    2.0000 	   46.0000 	   41.0387
    2.0066 	   29.3580 	    2.0000 	   46.0000 	   41.6758
    2.1286 	   30.0050 	    2.0000 	   46.0000 	   42.3228
    2.1439 	   30.6530 	    2.0000 	   46.0000 	   42.9708
    2.0829 	   31.3140 	    2.0000 	   46.0000 	   43.6319
    2.0829 	   31.9490 	    2.0000 	   46.0000 	   44.2669
    1.9608 	   32.6040 	    2.0000 	   46.0000 	   44.9220
    2.1134 	   33.2400 	    2.0000 	   46.0000 	   45.5580
    1.9455 	   33.9010 	    2.0000 	   46.0000 	   46.2190
    1.9913 	   34.5440 	    2.0000 	   46.0000 	   46.8621
    2.0523 	   35.2110 	    2.0000 	   46.0000 	   47.5291
    1.9913 	   35.8430 	    2.0000 	   46.0000 	   48.1611
    1.9303 	   36.4460 	    2.0000 	   46.0000 	   48.7642
    2.1897 	   37.0540 	    2.0000 	   46.0000 	   49.3722
    2.0218 	   37.7320 	    2.0000 	   46.0000 	   50.0502
    2.0066 	   38.3990 	    2.0000 	   46.0000 	   50.7173
    2.0371 	   39.0500 	    2.0000 	   46.0000 	   51.3683
    2.0218 	   39.6990 	    2.0000 	   46.0000 	   52.0164
    1.9913 	   40.3570 	    2.0000 	   46.0000 	   52.6744
    2.0371 	   41.0120 	    2.0000 	   46.0000 	   53.3294
    1.9608 	   41.6540 	    2.0000 	   46.0000 	   53.9715
    1.8692 	   42.3300 	    2.0000 	   46.0000 	   54.6475
    1.9608 	   43.0160 	    2.0000 	   46.0000 	   55.3335
    2.0066 	   43.7090 	    2.0000 	   46.0000 	   56.0266
    1.8235 	   44.3710 	    2.0000 	   46.0000 	   56.6886
    1.9760 	   45.0690 	    2.0000 	   46.0000 	   57.3867
    2.2049 	   45.7600 	    2.0000 	   46.0000 	   58.0777
    1.9913 	   46.4030 	    2.0000 	   46.0000 	   58.7207
    1.9455 	   47.1000 	    2.0000 	   46.0000 	   59.4178
    2.0371 	   47.7940 	    2.0000 	   47.0000 	    0.1118
    2.0523 	   48.4900 	    2.0000 	   47.0000 	    0.8079
    2.1439 	   49.2080 	    2.0000 	   47.0000 	    1.5259
    2.0676 	   49.8780 	    2.0000 	   47.0000 	    2.1959
    2.0371 	   50.5550 	    2.0000 	   47.0000 	    2.8730
    2.0371 	   51.2560 	    2.0000 	   47.0000 	    3.5740
    1.9760 	   51.9180 	    2.0000 	   47.0000 	    4.2361
    1.9608 	   52.6410 	    2.0000 	   47.0000 	    4.9591
    1.8235 	   53.3780 	    2.0000 	   47.0000 	    5.6961
    2.0066 	   54.0790 	    2.0000 	   47.0000 	    6.3972
    2.0523 	   54.7980 	    2.0000 	   47.0000 	    7.1162
    1.8692 	   55.5300 	    2.0000 	   47.0000 	    7.8483
    1.9150 	   56.2670 	    2.0000 	   47.0000 	    8.5853
    2.0676 	   56.9680 	    2.0000 	   47.0000 	    9.2863
    1.8540 	   57.6520 	    2.0000 	   47.0000 	    9.9694
    2.0218 	   58.3300 	    2.0000 	   47.0000 	   10.6474
    1.9608 	   59.0450 	    2.0000 	   47.0000 	   11.3625
    2.0676 	   59.7810 	    2.0000 	   47.0000 	   12.0985
    2.0523 	   60.5160 	    2.0000 	   47.0000 	   12.8335
    1.9303 	   61.2610 	    2.0000 	   47.0000 	   13.5786
    1.9913 	   61.9730 	    2.0000 	   47.0000 	   14.2906
    1.8845 	   62.7000 	    2.0000 	   47.0000 	   15.0177
    1.5946 	   63.4300 	    2.0000 	   47.0000 	   15.7477
    1.8692 	   64.1730 	    2.0000 	   47.0000 	   16.4908
    1.9608 	   64.9030 	    2.0000 	   47.0000 	   17.2208
    2.0066 	   65.6190 	    2.0000 	   47.0000 	   17.9368
    1.9608 	   66.3310 	    2.0000 	   47.0000 	   18.6489
    2.0066 	   67.0700 	    2.0000 	   47.0000 	   19.3879
    1.9303 	   67.8430 	    2.0000 	   47.0000 	   20.1610
    1.9608 	   68.5950 	    2.0000 	   47.0000 	   20.9130
    1.9760 	   69.3760 	    2.0000 	   47.0000 	   21.6941
    2.0218 	   70.1440 	    2.0000 	   47.0000 	   22.4621
    1.7929 	   70.8840 	    2.0000 	   47.0000 	   23.2021
    1.9150 	   71.6320 	    2.0000 	   47.0000 	   23.9502
    1.9303 	   72.4180 	    2.0000 	   47.0000 	   24.7362
    1.8540 	   73.1730 	    2.0000 	   47.0000 	   25.4913
    1.8997 	   73.9410 	    2.0000 	   47.0000 	   26.2593
    2.0066 	   74.7130 	    2.0000 	   47.0000 	   27.0304
    1.8845 	   75.4420 	    2.0000 	   47.0000 	   27.7594
    1.9760 	   76.1660 	    2.0000 	   47.0000 	   28.4834
    1.9150 	   76.8780 	    2.0000 	   47.0000 	   29.1955
    1.8235 	   77.6340 	    2.0000 	   47.0000 	   29.9515
    1.8235 	   78.3710 	    2.0000 	   47.0000 	   30.6886
    1.9608 	   79.0960 	    2.0000 	   47.0000 	   31.4136
    1.7624 	   79.8410 	    2.0000 	   47.0000 	   32.1587
    1.8845 	   80.5690 	    2.0000 	   47.0000 	   32.8867
    1.9760 	   81.3410 	    2.0000 	   47.0000 	   33.6587
    2.0676 	   82.1350 	    2.0000 	   47.0000 	   34.4528
    2.0523 	   82.9150 	    2.0000 	   47.0000 	   35.2328
    1.8540 	   83.7140 	    2.0000 	   47.0000 	   36.0319
    1.9150 	   84.5240 	    2.0000 	   47.0000 	   36.8419
    1.7929 	   85.2850 	    2.0000 	   47.0000 	   37.6030
    1.5793 	   86.0700 	    2.0000 	   47.0000 	   38.3880
    1.9760 	   86.8240 	    2.0000 	   47.0000 	   39.1421
    1.8692 	   87.5730 	    2.0000 	   47.0000 	   39.8911
    1.8845 	   88.3440 	    2.0000 	   47.0000 	   40.6621
    1.8997 	   89.0910 	    2.0000 	   47.0000 	   41.4092
    1.7014 	   89.8920 	    2.0000 	   47.0000 	   42.2102
    2.0371 	   90.7040 	    2.0000 	   47.0000 	   43.0223
    1.7777 	   91.5130 	    2.0000 	   47.0000 	   43.8313
    1.9303 	   92.2980 	    2.0000 	   47.0000 	   44.6154
    1.8082 	   93.0720 	    2.0000 	   47.0000 	   45.3894
    1.8692 	   93.8770 	    2.0000 	   47.0000 	   46.1945
    1.8692 	   94.6720 	    2.0000 	   47.0000 	   46.9895
    1.7319 	   95.4480 	    2.0000 	   47.0000 	   47.7655
    1.5030 	   96.2620 	    2.0000 	   47.0000 	   48.5796
    1.4115 	   97.0190 	    2.0000 	   47.0000 	   49.3366
    1.3809 	   97.8330 	    2.0000 	   47.0000 	   50.1507
    1.4267 	   98.5990 	    2.0000 	   47.0000 	   50.9167
    1.1368 	   99.3600 	    2.0000 	   47.0000 	   51.6778
    1.1368 	  100.1510 	    2.0000 	   47.0000 	   52.4688
    1.0910 	  100.9820 	    2.0000 	   47.0000 	   53.2999
    0.9842 	  101.7840 	    2.0000 	   47.0000 	   54.1019
    0.9384 	  102.5990 	    2.0000 	   47.0000 	   54.9170
    0.9079 	  103.3560 	    2.0000 	   47.0000 	   55.6740
    0.9384 	  104.1110 	    2.0000 	   47.0000 	   56.4280
    0.8316 	  104.9050 	    2.0000 	   47.0000 	   57.2231
    0.9384 	  105.7160 	    2.0000 	   47.0000 	   58.0341
    0.9079 	  106.5280 	    2.0000 	   47.0000 	   58.8462
    0.7553 	  107.3170 	    2.0000 	   47.0000 	   59.6352
    0.7858 	  108.0900 	    2.0000 	   48.0000 	    0.4083
    0.7248 	  108.8650 	    2.0000 	   48.0000 	    1.1833
    0.8469 	  109.6410 	    2.0000 	   48.0000 	    1.9584
    0.6485 	  110.4570 	    2.0000 	   48.0000 	    2.7744
    0.7095 	  111.2860 	    2.0000 	   48.0000 	    3.6035
    0.7706 	  112.1030 	    2.0000 	   48.0000 	    4.4205
    0.5875 	  112.8810 	    2.0000 	   48.0000 	    5.1985
    0.6485 	  113.6930 	    2.0000 	   48.0000 	    6.0106
    0.6485 	  114.5530 	    2.0000 	   48.0000 	    6.8706
    0.4959 	  115.3710 	    2.0000 	   48.0000 	    7.6887
    0.7401 	  116.2410 	    2.0000 	   48.0000 	    8.5587
    0.4959 	  116.8120 	    2.0000 	   48.0000 	    9.1298