Folder: Smart-Fabrics/instron/independence/relaxation/bad_l15w3_40_30

File: b_l15w3_40_30_stop1min.txt
Thayer School of Engineering        Instron 4442 Mechanical Testing System
7/5/2018 1:30:55 AM

  Force (N)	Extension (mm)	Not Used	Not Used	Not Used	     Hour	    Minute	    Second
    0.4349 	    0.5120 	    1.0000 	   31.0000 	   20.9432
    0.5570 	    1.2635 	    1.0000 	   31.0000 	   22.4463
    0.0534 	    1.8980 	    1.0000 	   31.0000 	   23.7154
    0.4044 	    2.4305 	    1.0000 	   31.0000 	   24.7804
    0.4349 	    2.9365 	    1.0000 	   31.0000 	   25.7925
    0.4044 	    3.4405 	    1.0000 	   31.0000 	   26.8005
    0.4807 	    3.9530 	    1.0000 	   31.0000 	   27.8256
    0.5570 	    4.4580 	    1.0000 	   31.0000 	   28.8356
    0.5417 	    4.9670 	    1.0000 	   31.0000 	   29.8537
    0.4196 	    5.4635 	    1.0000 	   31.0000 	   30.8468
    0.4501 	    5.9790 	    1.0000 	   31.0000 	   31.8778
    0.4807 	    6.5000 	    1.0000 	   31.0000 	   32.9199
    0.6180 	    7.0160 	    1.0000 	   31.0000 	   33.9519
    0.5722 	    7.5410 	    1.0000 	   31.0000 	   35.0010
    0.3586 	    8.0705 	    1.0000 	   31.0000 	   36.0601
    0.5722 	    8.6055 	    1.0000 	   31.0000 	   37.1301
    0.7095 	    9.1370 	    1.0000 	   31.0000 	   38.1932
    0.5112 	    9.6555 	    1.0000 	   31.0000 	   39.2302
    0.5875 	   10.1790 	    1.0000 	   31.0000 	   40.2773
    0.5570 	   10.7070 	    1.0000 	   31.0000 	   41.3334
    0.6790 	   11.2150 	    1.0000 	   31.0000 	   42.3494
    0.6638 	   11.7595 	    1.0000 	   31.0000 	   43.4385
    0.6180 	   12.3055 	    1.0000 	   31.0000 	   44.5305
    0.6180 	   12.8620 	    1.0000 	   31.0000 	   45.6436
    0.5417 	   13.4280 	    1.0000 	   31.0000 	   46.7757
    0.7095 	   13.9975 	    1.0000 	   31.0000 	   47.9147
    0.8621 	   14.5495 	    1.0000 	   31.0000 	   49.0188
    0.6485 	   15.1235 	    1.0000 	   31.0000 	   50.1669
    0.6485 	   15.6690 	    1.0000 	   31.0000 	   51.2579
    0.6790 	   16.2060 	    1.0000 	   31.0000 	   52.3320
    0.6943 	   16.7630 	    1.0000 	   31.0000 	   53.4451
    0.7095 	   17.3130 	    1.0000 	   31.0000 	   54.5451
    0.9537 	   17.8855 	    1.0000 	   31.0000 	   55.6902
    0.8469 	   18.4405 	    1.0000 	   31.0000 	   56.8002
    1.0147 	   19.0265 	    1.0000 	   31.0000 	   57.9723
    0.9079 	   19.5930 	    1.0000 	   31.0000 	   59.1054
    0.8621 	   20.1605 	    1.0000 	   32.0000 	    0.2404
    1.0300 	   20.7625 	    1.0000 	   32.0000 	    1.4445
    0.9842 	   21.3685 	    1.0000 	   32.0000 	    2.6566
    0.8621 	   21.9440 	    1.0000 	   32.0000 	    3.8076
    1.0300 	   22.5345 	    1.0000 	   32.0000 	    4.9887
    1.0452 	   23.1570 	    1.0000 	   32.0000 	    6.2338
    0.9079 	   23.7790 	    1.0000 	   32.0000 	    7.4779
    1.1521 	   24.3975 	    1.0000 	   32.0000 	    8.7149
    1.0605 	   25.0250 	    1.0000 	   32.0000 	    9.9690
    1.1215 	   25.6390 	    1.0000 	   32.0000 	   11.1971
    1.0605 	   26.2625 	    1.0000 	   32.0000 	   12.4441
    1.1521 	   26.8760 	    1.0000 	   32.0000 	   13.6712
    1.2741 	   27.4900 	    1.0000 	   32.0000 	   14.8993
    1.1978 	   28.1230 	    1.0000 	   32.0000 	   16.1654
    1.2284 	   28.7420 	    1.0000 	   32.0000 	   17.4034
    1.2741 	   29.3595 	    1.0000 	   32.0000 	   18.6385
    1.4878 	   29.9740 	    1.0000 	   32.0000 	   19.8676
    1.5183 	   30.6035 	    1.0000 	   32.0000 	   21.1266
    1.5183 	   31.2330 	    1.0000 	   32.0000 	   22.3857
    1.5488 	   31.8695 	    1.0000 	   32.0000 	   23.6588
    1.1978 	   32.5130 	    1.0000 	   32.0000 	   24.9459
    1.5183 	   33.1520 	    1.0000 	   32.0000 	   26.2239
    1.5793 	   33.7940 	    1.0000 	   32.0000 	   27.5070
    1.7319 	   34.3965 	    1.0000 	   32.0000 	   28.7121
    1.7166 	   35.0340 	    1.0000 	   32.0000 	   29.9871
    1.8235 	   35.6290 	    1.0000 	   32.0000 	   31.1772
    1.9303 	   36.2345 	    1.0000 	   32.0000 	   32.3883
    1.5640 	   36.8695 	    1.0000 	   32.0000 	   33.6584
    1.8997 	   37.4890 	    1.0000 	   32.0000 	   34.8974
    1.9455 	   38.1030 	    1.0000 	   32.0000 	   36.1255
    1.9760 	   38.7415 	    1.0000 	   32.0000 	   37.4026
    2.1134 	   39.4020 	    1.0000 	   32.0000 	   38.7236
    2.1592 	   40.0375 	    1.0000 	   32.0000 	   39.9947
    2.2202 	   40.6440 	    1.0000 	   32.0000 	   41.2078
    2.1592 	   41.2640 	    1.0000 	   32.0000 	   42.4479
    2.1286 	   41.9040 	    1.0000 	   32.0000 	   43.7279
    2.0371 	   42.5195 	    1.0000 	   32.0000 	   44.9580
    2.1134 	   43.1225 	    1.0000 	   32.0000 	   46.1641
    1.9760 	   43.7600 	    1.0000 	   32.0000 	   47.4391
    2.0829 	   44.4225 	    1.0000 	   32.0000 	   48.7642
    2.1134 	   45.0990 	    1.0000 	   32.0000 	   50.1173
    2.0371 	   45.7545 	    1.0000 	   32.0000 	   51.4284
    1.7624 	   46.4110 	    1.0000 	   32.0000 	   52.7414
    2.0066 	   47.0520 	    1.0000 	   32.0000 	   54.0235
    2.1439 	   47.7110 	    1.0000 	   32.0000 	   55.3416
    1.8997 	   48.3830 	    1.0000 	   32.0000 	   56.6857
    1.9760 	   49.0455 	    1.0000 	   32.0000 	   58.0107
    2.1592 	   49.6780 	    1.0000 	   32.0000 	   59.2758
    2.1592 	   50.3405 	    1.0000 	   33.0000 	    0.6009
    2.0218 	   51.0085 	    1.0000 	   33.0000 	    1.9370
    2.0829 	   51.6735 	    1.0000 	   33.0000 	    3.2660
    1.9913 	   52.3435 	    1.0000 	   33.0000 	    4.6061
    2.0829 	   53.0005 	    1.0000 	   33.0000 	    5.9202
    1.8997 	   53.6745 	    1.0000 	   33.0000 	    7.2683
    1.6861 	   54.3320 	    1.0000 	   33.0000 	    8.5833
    2.0523 	   55.0210 	    1.0000 	   33.0000 	    9.9614
    2.0218 	   55.6895 	    1.0000 	   33.0000 	   11.2985
    1.8997 	   56.3525 	    1.0000 	   33.0000 	   12.6246
    2.0523 	   57.0750 	    1.0000 	   33.0000 	   14.0687
    1.8082 	   57.7645 	    1.0000 	   33.0000 	   15.4487
    2.0981 	   58.4790 	    1.0000 	   33.0000 	   16.8778
    2.0066 	   59.1575 	    1.0000 	   33.0000 	   18.2349
    1.7929 	   59.8590 	    1.0000 	   33.0000 	   19.6380
    2.0981 	   60.5360 	    1.0000 	   33.0000 	   20.9911
    1.9913 	   61.2635 	    1.0000 	   33.0000 	   22.4461
    1.9303 	   61.9560 	    1.0000 	   33.0000 	   23.8312
    2.0523 	   62.6620 	    1.0000 	   33.0000 	   25.2433
    1.9760 	   63.3725 	    1.0000 	   33.0000 	   26.6644
    1.9608 	   64.0975 	    1.0000 	   33.0000 	   28.1145
    1.9913 	   64.8250 	    1.0000 	   33.0000 	   29.5695
    2.0523 	   65.5285 	    1.0000 	   33.0000 	   30.9766
    2.0218 	   66.2565 	    1.0000 	   33.0000 	   32.4327
    2.1592 	   66.9735 	    1.0000 	   33.0000 	   33.8668
    2.0523 	   67.6955 	    1.0000 	   33.0000 	   35.3109
    1.9455 	   68.4340 	    1.0000 	   33.0000 	   36.7880
    1.8997 	   69.1585 	    1.0000 	   33.0000 	   38.2360
    1.9913 	   69.8755 	    1.0000 	   33.0000 	   39.6701
    1.9760 	   70.6140 	    1.0000 	   33.0000 	   41.1472
    2.1134 	   71.3520 	    1.0000 	   33.0000 	   42.6233
    2.0676 	   72.0990 	    1.0000 	   33.0000 	   44.1174
    1.8387 	   72.8305 	    1.0000 	   33.0000 	   45.5805
    1.5640 	   73.5740 	    1.0000 	   33.0000 	   47.0676
    1.4572 	   74.3255 	    1.0000 	   33.0000 	   48.5706
    1.3046 	   75.0635 	    1.0000 	   33.0000 	   50.0467
    1.1978 	   75.8225 	    1.0000 	   33.0000 	   51.5648
    1.1063 	   76.6115 	    1.0000 	   33.0000 	   53.1429
    1.0147 	   77.3755 	    1.0000 	   33.0000 	   54.6710
    1.0605 	   78.1195 	    1.0000 	   33.0000 	   56.1581
    1.0758 	   78.8910 	    1.0000 	   33.0000 	   57.7012
    1.1063 	   79.6465 	    1.0000 	   33.0000 	   59.2122
    0.9995 	   80.4070 	    1.0000 	   34.0000 	    0.7333
    1.0300 	   81.1575 	    1.0000 	   34.0000 	    2.2344
    0.9537 	   81.9280 	    1.0000 	   34.0000 	    3.7755
    0.8164 	   82.7000 	    1.0000 	   34.0000 	    5.3196
    0.8774 	   83.4585 	    1.0000 	   34.0000 	    6.8367
    0.8164 	   84.2455 	    1.0000 	   34.0000 	    8.4108
    0.7095 	   85.0495 	    1.0000 	   34.0000 	   10.0189
    0.8621 	   85.8380 	    1.0000 	   34.0000 	   11.5960
    0.6790 	   86.6510 	    1.0000 	   34.0000 	   13.2210
    0.6943 	   87.4435 	    1.0000 	   34.0000 	   14.8061
    0.7553 	   88.2425 	    1.0000 	   34.0000 	   16.4042
    0.6332 	   89.0235 	    1.0000 	   34.0000 	   17.9663
    0.5570 	   89.8145 	    1.0000 	   34.0000 	   19.5484
    0.5722 	   90.6270 	    1.0000 	   34.0000 	   21.1735
    0.5570 	   91.4415 	    1.0000 	   34.0000 	   22.8026
    0.5570 	   92.2510 	    1.0000 	   34.0000 	   24.4217
    0.6180 	   93.0810 	    1.0000 	   34.0000 	   26.0818
    0.5264 	   93.8965 	    1.0000 	   34.0000 	   27.7129
    0.5417 	   94.7295 	    1.0000 	   34.0000 	   29.3790
    0.5264 	   95.5550 	    1.0000 	   34.0000 	   31.0291
    0.5875 	   96.3650 	    1.0000 	   34.0000 	   32.6492
    0.6332 	   97.1695 	    1.0000 	   34.0000 	   34.2583
    0.2823 	   97.9720 	    1.0000 	   34.0000 	   35.8633
    0.3738 	   98.7715 	    1.0000 	   34.0000 	   37.4624
    0.6943 	   99.5715 	    1.0000 	   34.0000 	   39.0625
    0.4959 	  100.3865 	    1.0000 	   34.0000 	   40.6926
    0.4044 	  101.1990 	    1.0000 	   34.0000 	   42.3177
    0.1907 	  102.0270 	    1.0000 	   34.0000 	   43.9738
    0.4196 	  102.8540 	    1.0000 	   34.0000 	   45.6279
    0.3586 	  103.6935 	    1.0000 	   34.0000 	   47.3060
    0.4044 	  104.5525 	    1.0000 	   34.0000 	   49.0241
    0.0992 	  105.3820 	    1.0000 	   34.0000 	   50.6832
    0.4044 	  106.2255 	    1.0000 	   34.0000 	   52.3703
    0.5264 	  107.0490 	    1.0000 	   34.0000 	   54.0174
    0.2518 	  107.8930 	    1.0000 	   34.0000 	   55.7055
    0.4044 	  108.7585 	    1.0000 	   34.0000 	   57.4366
    0.4349 	  109.6210 	    1.0000 	   34.0000 	   59.1617
    0.3891 	  110.4945 	    1.0000 	   35.0000 	    0.9088
    0.3128 	  111.3725 	    1.0000 	   35.0000 	    2.6649
    0.3433 	  112.2355 	    1.0000 	   35.0000 	    4.3910
    0.3738 	  112.8975 	    1.0000 	   35.0000 	    5.7140