Folder: Smart-Fabrics/instron/independence/relaxation/bad_l15w3_30_60_pre10

File: b_l15w3_20_60_pre10_step.txt
Thayer School of Engineering        Instron 4442 Mechanical Testing System
7/5/2018 6:51:45 AM

  Force (N)	Extension (mm)	Not Used	Not Used	Not Used	     Hour	    Minute	    Second
    1.0452 	    1.0240 	    6.0000 	   52.0000 	    9.1971
    0.9995 	    1.8630 	    6.0000 	   52.0000 	   10.0362
    0.9537 	    2.6790 	    6.0000 	   52.0000 	   10.8522
    0.9995 	    3.3360 	    6.0000 	   52.0000 	   11.5093
    0.9079 	    3.8890 	    6.0000 	   52.0000 	   12.0623
    0.9079 	    4.4000 	    6.0000 	   52.0000 	   12.5733
    0.9537 	    4.8770 	    6.0000 	   52.0000 	   13.0504
    1.0605 	    5.4180 	    6.0000 	   52.0000 	   13.5914
    1.1368 	    5.8960 	    6.0000 	   52.0000 	   14.0694
    0.9842 	    6.4160 	    6.0000 	   52.0000 	   14.5894
    1.1063 	    6.9150 	    6.0000 	   52.0000 	   15.0885
    1.3199 	    7.4480 	    6.0000 	   52.0000 	   15.6215
    1.1215 	    7.9190 	    6.0000 	   52.0000 	   16.0925
    1.0910 	    8.4290 	    6.0000 	   52.0000 	   16.6026
    0.9842 	    8.9110 	    6.0000 	   52.0000 	   17.0836
    1.2741 	    9.4210 	    6.0000 	   52.0000 	   17.5936
    1.1826 	    9.9120 	    6.0000 	   52.0000 	   18.0846
    1.2741 	   10.4370 	    6.0000 	   52.0000 	   18.6097
    1.3809 	   10.9210 	    6.0000 	   52.0000 	   19.0937
    1.4115 	   11.4410 	    6.0000 	   52.0000 	   19.6137
    1.3657 	   11.9300 	    6.0000 	   52.0000 	   20.1028
    1.3809 	   12.4430 	    6.0000 	   52.0000 	   20.6158
    1.4420 	   12.9400 	    6.0000 	   52.0000 	   21.1128
    1.4115 	   13.4950 	    6.0000 	   52.0000 	   21.6678
    1.3352 	   14.0010 	    6.0000 	   52.0000 	   22.1739
    1.2741 	   14.5020 	    6.0000 	   52.0000 	   22.6749
    1.5640 	   15.0020 	    6.0000 	   52.0000 	   23.1749
    1.6251 	   15.5430 	    6.0000 	   52.0000 	   23.7160
    1.5183 	   16.0480 	    6.0000 	   52.0000 	   24.2210
    1.7014 	   16.6120 	    6.0000 	   52.0000 	   24.7850
    1.7624 	   17.1040 	    6.0000 	   52.0000 	   25.2771
    1.7319 	   17.6280 	    6.0000 	   52.0000 	   25.8011
    1.8540 	   18.1210 	    6.0000 	   52.0000 	   26.2941
    1.8692 	   18.6580 	    6.0000 	   52.0000 	   26.8311
    1.9455 	   19.1920 	    6.0000 	   52.0000 	   27.3652
    1.8387 	   19.7450 	    6.0000 	   52.0000 	   27.9182
    1.9455 	   20.2750 	    6.0000 	   52.0000 	   28.4482
    2.0371 	   20.8330 	    6.0000 	   52.0000 	   29.0063
    1.7624 	   21.3930 	    6.0000 	   52.0000 	   29.5663
    2.0371 	   21.9310 	    6.0000 	   52.0000 	   30.1043
    1.9150 	   22.4930 	    6.0000 	   52.0000 	   30.6664
    2.1286 	   23.0310 	    6.0000 	   52.0000 	   31.2044
    1.9760 	   23.6070 	    6.0000 	   52.0000 	   31.7804
    2.0066 	   24.1250 	    6.0000 	   52.0000 	   32.2985
    2.0829 	   24.6970 	    6.0000 	   52.0000 	   32.8705
    1.8997 	   25.2450 	    6.0000 	   52.0000 	   33.4185
    1.9455 	   25.8100 	    6.0000 	   52.0000 	   33.9835
    2.0066 	   26.3320 	    6.0000 	   52.0000 	   34.5046
    2.0371 	   26.8720 	    6.0000 	   52.0000 	   35.0446
    1.9608 	   27.4430 	    6.0000 	   52.0000 	   35.6146
    2.0371 	   27.9980 	    6.0000 	   52.0000 	   36.1707
    2.0523 	   28.5910 	    6.0000 	   52.0000 	   36.7637
    1.9608 	   29.1430 	    6.0000 	   52.0000 	   37.3157
    1.8845 	   29.7310 	    6.0000 	   52.0000 	   37.9038
    1.8997 	   30.3050 	    6.0000 	   52.0000 	   38.4778
    1.9913 	   30.8900 	    6.0000 	   52.0000 	   39.0628
    1.7472 	   31.4540 	    6.0000 	   52.0000 	   39.6269
    1.9303 	   32.0180 	    6.0000 	   52.0000 	   40.1909
    1.7929 	   32.5960 	    6.0000 	   52.0000 	   40.7689
    1.8540 	   33.1530 	    6.0000 	   52.0000 	   41.3260
    1.8082 	   33.7260 	    6.0000 	   52.0000 	   41.8990
    1.5946 	   34.3000 	    6.0000 	   52.0000 	   42.4730
    1.8845 	   34.8730 	    6.0000 	   52.0000 	   43.0461
    1.9608 	   35.4580 	    6.0000 	   52.0000 	   43.6311
    2.0523 	   36.0350 	    6.0000 	   52.0000 	   44.2081
    1.9150 	   36.6430 	    6.0000 	   52.0000 	   44.8162
    1.9150 	   37.2290 	    6.0000 	   52.0000 	   45.4022
    2.0981 	   37.8270 	    6.0000 	   52.0000 	   46.0002
    1.7929 	   38.4230 	    6.0000 	   52.0000 	   46.5963
    2.0371 	   39.0200 	    6.0000 	   52.0000 	   47.1933
    1.9455 	   39.6250 	    6.0000 	   52.0000 	   47.7983
    1.8235 	   40.2080 	    6.0000 	   52.0000 	   48.3814
    1.8540 	   40.8280 	    6.0000 	   52.0000 	   49.0014
    1.8845 	   41.4260 	    6.0000 	   52.0000 	   49.5994
    1.8845 	   42.0290 	    6.0000 	   52.0000 	   50.2025
    1.9913 	   42.6350 	    6.0000 	   52.0000 	   50.8085
    1.9455 	   43.2260 	    6.0000 	   52.0000 	   51.3995
    1.9455 	   43.8320 	    6.0000 	   52.0000 	   52.0046
    1.8235 	   44.4450 	    6.0000 	   52.0000 	   52.6176
    2.0371 	   45.0620 	    6.0000 	   52.0000 	   53.2346
    1.8387 	   45.6660 	    6.0000 	   52.0000 	   53.8387
    1.9303 	   46.2630 	    6.0000 	   52.0000 	   54.4357
    1.7624 	   46.8940 	    6.0000 	   52.0000 	   55.0668
    1.8540 	   47.4900 	    6.0000 	   52.0000 	   55.6628
    1.8997 	   48.1060 	    6.0000 	   52.0000 	   56.2788
    1.9303 	   48.7180 	    6.0000 	   52.0000 	   56.8909
    2.0523 	   49.3380 	    6.0000 	   52.0000 	   57.5109
    1.8997 	   49.9790 	    6.0000 	   52.0000 	   58.1519
    1.7929 	   50.6290 	    6.0000 	   52.0000 	   58.8020
    1.9608 	   51.2700 	    6.0000 	   52.0000 	   59.4430
    1.6709 	   51.9210 	    6.0000 	   53.0000 	    0.0940
    2.0829 	   52.5560 	    6.0000 	   53.0000 	    0.7291
    1.8235 	   53.1750 	    6.0000 	   53.0000 	    1.3481
    1.8997 	   53.8240 	    6.0000 	   53.0000 	    1.9972
    2.0676 	   54.4400 	    6.0000 	   53.0000 	    2.6132
    1.9150 	   55.0860 	    6.0000 	   53.0000 	    3.2592
    1.8845 	   55.7340 	    6.0000 	   53.0000 	    3.9073
    1.7929 	   56.3750 	    6.0000 	   53.0000 	    4.5483
    1.8235 	   57.0330 	    6.0000 	   53.0000 	    5.2063
    1.9608 	   57.6660 	    6.0000 	   53.0000 	    5.8394
    1.8997 	   58.3090 	    6.0000 	   53.0000 	    6.4824
    1.8692 	   58.9420 	    6.0000 	   53.0000 	    7.1154
    1.9608 	   59.5890 	    6.0000 	   53.0000 	    7.7625
    2.0066 	   60.2370 	    6.0000 	   53.0000 	    8.4105
    1.8997 	   60.9260 	    6.0000 	   53.0000 	    9.0996
    1.9913 	   61.5770 	    6.0000 	   53.0000 	    9.7496
    1.9150 	   62.2160 	    6.0000 	   53.0000 	   10.3886
    1.9608 	   62.8640 	    6.0000 	   53.0000 	   11.0367
    1.6098 	   63.5110 	    6.0000 	   53.0000 	   11.6837
    1.8235 	   64.1560 	    6.0000 	   53.0000 	   12.3287
    1.8845 	   64.8370 	    6.0000 	   53.0000 	   13.0098
    2.0829 	   65.4680 	    6.0000 	   53.0000 	   13.6408
    1.8540 	   66.1290 	    6.0000 	   53.0000 	   14.3019
    1.8235 	   66.8090 	    6.0000 	   53.0000 	   14.9819
    1.8692 	   67.4760 	    6.0000 	   53.0000 	   15.6489
    1.9913 	   68.1580 	    6.0000 	   53.0000 	   16.3310
    1.7624 	   68.8640 	    6.0000 	   53.0000 	   17.0370
    1.8082 	   69.5330 	    6.0000 	   53.0000 	   17.7060
    1.9913 	   70.2130 	    6.0000 	   53.0000 	   18.3861
    1.8540 	   70.9110 	    6.0000 	   53.0000 	   19.0841
    2.0066 	   71.5520 	    6.0000 	   53.0000 	   19.7252
    1.8845 	   72.2460 	    6.0000 	   53.0000 	   20.4192
    2.0066 	   72.9310 	    6.0000 	   53.0000 	   21.1042
    1.6861 	   73.5850 	    6.0000 	   53.0000 	   21.7583
    1.8845 	   74.2540 	    6.0000 	   53.0000 	   22.4273
    1.8540 	   74.9530 	    6.0000 	   53.0000 	   23.1264
    1.8387 	   75.6200 	    6.0000 	   53.0000 	   23.7934
    1.9303 	   76.2910 	    6.0000 	   53.0000 	   24.4644
    1.8387 	   76.9600 	    6.0000 	   53.0000 	   25.1335
    1.9608 	   77.6310 	    6.0000 	   53.0000 	   25.8045
    1.8997 	   78.2980 	    6.0000 	   53.0000 	   26.4715
    1.8692 	   78.9870 	    6.0000 	   53.0000 	   27.1596
    1.9608 	   79.6680 	    6.0000 	   53.0000 	   27.8406
    2.0218 	   80.3510 	    6.0000 	   53.0000 	   28.5237
    1.9150 	   81.0430 	    6.0000 	   53.0000 	   29.2157
    1.8082 	   81.7360 	    6.0000 	   53.0000 	   29.9087
    1.8997 	   82.4150 	    6.0000 	   53.0000 	   30.5878
    1.8540 	   83.1170 	    6.0000 	   53.0000 	   31.2898
    1.7624 	   83.8130 	    6.0000 	   53.0000 	   31.9859
    1.5335 	   84.5000 	    6.0000 	   53.0000 	   32.6729
    1.3504 	   85.1770 	    6.0000 	   53.0000 	   33.3499
    1.3657 	   85.9010 	    6.0000 	   53.0000 	   34.0740
    1.3504 	   86.6310 	    6.0000 	   53.0000 	   34.8040
    1.2436 	   87.3660 	    6.0000 	   53.0000 	   35.5391
    1.3046 	   88.1030 	    6.0000 	   53.0000 	   36.2761
    0.9537 	   88.8230 	    6.0000 	   53.0000 	   36.9962
    1.0300 	   89.5450 	    6.0000 	   53.0000 	   37.7182
    0.9079 	   90.2920 	    6.0000 	   53.0000 	   38.4652
    0.9537 	   91.1000 	    6.0000 	   53.0000 	   39.2733
    1.1368 	   91.8240 	    6.0000 	   53.0000 	   39.9973
    0.9384 	   92.5820 	    6.0000 	   53.0000 	   40.7554
    1.0758 	   93.3350 	    6.0000 	   53.0000 	   41.5084
    1.0147 	   94.0920 	    6.0000 	   53.0000 	   42.2655
    0.8316 	   94.8220 	    6.0000 	   53.0000 	   42.9955
    0.9232 	   95.5980 	    6.0000 	   53.0000 	   43.7715
    0.8469 	   96.3370 	    6.0000 	   53.0000 	   44.5096
    0.7553 	   97.0670 	    6.0000 	   53.0000 	   45.2396
    0.6027 	   97.8100 	    6.0000 	   53.0000 	   45.9827
    0.7553 	   98.5300 	    6.0000 	   53.0000 	   46.7027
    0.7553 	   99.2610 	    6.0000 	   53.0000 	   47.4338
    0.8469 	   99.9810 	    6.0000 	   53.0000 	   48.1538
    0.8316 	  100.7380 	    6.0000 	   53.0000 	   48.9108
    0.8164 	  101.4690 	    6.0000 	   53.0000 	   49.6419
    0.7401 	  102.2160 	    6.0000 	   53.0000 	   50.3889
    0.6638 	  102.9400 	    6.0000 	   53.0000 	   51.1130
    0.7706 	  103.7040 	    6.0000 	   53.0000 	   51.8770
    0.6790 	  104.4070 	    6.0000 	   53.0000 	   52.5800
    0.7706 	  105.1370 	    6.0000 	   53.0000 	   53.3101
    0.7553 	  105.8970 	    6.0000 	   53.0000 	   54.0701
    0.7401 	  106.1940 	    6.0000 	   53.0000 	   54.3671

File: b_l15w3_30_60_pre10_step.txt
Thayer School of Engineering        Instron 4442 Mechanical Testing System
7/5/2018 6:30:12 AM

  Force (N)	Extension (mm)	Not Used	Not Used	Not Used	     Hour	    Minute	    Second
    0.7553 	    1.0190 	    6.0000 	   31.0000 	   23.7059
    0.6943 	    2.0960 	    6.0000 	   31.0000 	   24.7830
    0.9232 	    3.1350 	    6.0000 	   31.0000 	   25.8220
    0.8316 	    3.8280 	    6.0000 	   31.0000 	   26.5151
    0.8469 	    4.4820 	    6.0000 	   31.0000 	   27.1691
    0.9384 	    5.0920 	    6.0000 	   31.0000 	   27.7791
    0.9232 	    5.7650 	    6.0000 	   31.0000 	   28.4522
    0.7553 	    6.4180 	    6.0000 	   31.0000 	   29.1052
    1.0147 	    7.0280 	    6.0000 	   31.0000 	   29.7152
    0.9842 	    7.6470 	    6.0000 	   31.0000 	   30.3343
    1.0910 	    8.2800 	    6.0000 	   31.0000 	   30.9673
    1.0910 	    8.9010 	    6.0000 	   31.0000 	   31.5883
    1.0910 	    9.5540 	    6.0000 	   31.0000 	   32.2414
    1.1368 	   10.1790 	    6.0000 	   31.0000 	   32.8664
    1.2741 	   10.8060 	    6.0000 	   31.0000 	   33.4935
    1.0605 	   11.4790 	    6.0000 	   31.0000 	   34.1665
    1.3199 	   12.1150 	    6.0000 	   31.0000 	   34.8025
    1.3657 	   12.7750 	    6.0000 	   31.0000 	   35.4626
    1.4115 	   13.4440 	    6.0000 	   31.0000 	   36.1316
    1.3809 	   14.0620 	    6.0000 	   31.0000 	   36.7496
    1.3199 	   14.7190 	    6.0000 	   31.0000 	   37.4067
    1.4725 	   15.3570 	    6.0000 	   31.0000 	   38.0437
    1.3352 	   15.9920 	    6.0000 	   31.0000 	   38.6787
    1.5183 	   16.6620 	    6.0000 	   31.0000 	   39.3488
    1.6403 	   17.2840 	    6.0000 	   31.0000 	   39.9708
    1.7929 	   17.9360 	    6.0000 	   31.0000 	   40.6229
    1.6098 	   18.6210 	    6.0000 	   31.0000 	   41.3079
    1.8387 	   19.2830 	    6.0000 	   31.0000 	   41.9699
    1.8387 	   19.9370 	    6.0000 	   31.0000 	   42.6240
    1.8387 	   20.6330 	    6.0000 	   31.0000 	   43.3200
    1.8997 	   21.2860 	    6.0000 	   31.0000 	   43.9731
    1.9455 	   21.9170 	    6.0000 	   31.0000 	   44.6041
    2.0829 	   22.6200 	    6.0000 	   31.0000 	   45.3071
    2.2354 	   23.2840 	    6.0000 	   31.0000 	   45.9712
    2.3880 	   23.9150 	    6.0000 	   31.0000 	   46.6022
    2.2507 	   24.6060 	    6.0000 	   31.0000 	   47.2932
    2.4033 	   25.2690 	    6.0000 	   31.0000 	   47.9563
    2.4796 	   25.9570 	    6.0000 	   31.0000 	   48.6443
    2.4491 	   26.6330 	    6.0000 	   31.0000 	   49.3204
    2.5711 	   27.2890 	    6.0000 	   31.0000 	   49.9764
    2.7543 	   27.9270 	    6.0000 	   31.0000 	   50.6144
    2.5254 	   28.5710 	    6.0000 	   31.0000 	   51.2585
    2.9374 	   29.2440 	    6.0000 	   31.0000 	   51.9315
    2.9526 	   29.9000 	    6.0000 	   31.0000 	   52.5875
    2.8153 	   30.5750 	    6.0000 	   31.0000 	   53.2626
    2.9526 	   31.2570 	    6.0000 	   31.0000 	   53.9446
    2.8153 	   31.9270 	    6.0000 	   31.0000 	   54.6137
    2.8916 	   32.6250 	    6.0000 	   31.0000 	   55.3117
    2.8305 	   33.3190 	    6.0000 	   31.0000 	   56.0057
    2.7695 	   34.0150 	    6.0000 	   31.0000 	   56.7018
    2.8000 	   34.7250 	    6.0000 	   31.0000 	   57.4118
    2.5254 	   35.4050 	    6.0000 	   31.0000 	   58.0919
    2.8763 	   36.1070 	    6.0000 	   31.0000 	   58.7939
    2.6322 	   36.8350 	    6.0000 	   31.0000 	   59.5219
    2.9679 	   37.5440 	    6.0000 	   32.0000 	    0.2310
    2.5406 	   38.2550 	    6.0000 	   32.0000 	    0.9420
    2.7695 	   38.9780 	    6.0000 	   32.0000 	    1.6651
    2.7543 	   39.6930 	    6.0000 	   32.0000 	    2.3801
    2.8153 	   40.4100 	    6.0000 	   32.0000 	    3.0971
    2.7848 	   41.1360 	    6.0000 	   32.0000 	    3.8232
    2.7695 	   41.8410 	    6.0000 	   32.0000 	    4.5282
    2.6322 	   42.5380 	    6.0000 	   32.0000 	    5.2253
    2.7848 	   43.2690 	    6.0000 	   32.0000 	    5.9563
    2.6627 	   43.9900 	    6.0000 	   32.0000 	    6.6774
    2.7237 	   44.7300 	    6.0000 	   32.0000 	    7.4174
    2.5864 	   45.4360 	    6.0000 	   32.0000 	    8.1234
    2.8305 	   46.1700 	    6.0000 	   32.0000 	    8.8575
    2.6932 	   46.9210 	    6.0000 	   32.0000 	    9.6085
    2.4796 	   47.6710 	    6.0000 	   32.0000 	   10.3586
    2.7085 	   48.4060 	    6.0000 	   32.0000 	   11.0936
    2.7085 	   49.1740 	    6.0000 	   32.0000 	   11.8616
    2.6627 	   49.9560 	    6.0000 	   32.0000 	   12.6427
    2.6627 	   50.7210 	    6.0000 	   32.0000 	   13.4077
    2.8153 	   51.4740 	    6.0000 	   32.0000 	   14.1608
    2.6780 	   52.2590 	    6.0000 	   32.0000 	   14.9458
    2.7390 	   53.0480 	    6.0000 	   32.0000 	   15.7349
    2.6780 	   53.8160 	    6.0000 	   32.0000 	   16.5029
    2.7543 	   54.6040 	    6.0000 	   32.0000 	   17.2910
    2.3423 	   55.3850 	    6.0000 	   32.0000 	   18.0720
    2.7085 	   56.1580 	    6.0000 	   32.0000 	   18.8450
    2.8763 	   56.9300 	    6.0000 	   32.0000 	   19.6171
    2.7695 	   57.7160 	    6.0000 	   32.0000 	   20.4031
    2.6169 	   58.4760 	    6.0000 	   32.0000 	   21.1632
    2.8000 	   59.2210 	    6.0000 	   32.0000 	   21.9082
    2.6932 	   60.0120 	    6.0000 	   32.0000 	   22.6993
    2.5711 	   60.7880 	    6.0000 	   32.0000 	   23.4753
    2.6627 	   61.5720 	    6.0000 	   32.0000 	   24.2594
    2.8153 	   62.3840 	    6.0000 	   32.0000 	   25.0714
    2.8153 	   63.1530 	    6.0000 	   32.0000 	   25.8404
    2.8305 	   63.9200 	    6.0000 	   32.0000 	   26.6075
    2.7543 	   64.7250 	    6.0000 	   32.0000 	   27.4125
    2.6017 	   65.5090 	    6.0000 	   32.0000 	   28.1966
    2.7695 	   66.3200 	    6.0000 	   32.0000 	   29.0076
    2.6169 	   67.1370 	    6.0000 	   32.0000 	   29.8247
    2.6474 	   67.9330 	    6.0000 	   32.0000 	   30.6197
    2.5711 	   68.7280 	    6.0000 	   32.0000 	   31.4148
    2.7237 	   69.5360 	    6.0000 	   32.0000 	   32.2228
    2.7390 	   70.3520 	    6.0000 	   32.0000 	   33.0389
    2.6322 	   71.1650 	    6.0000 	   32.0000 	   33.8519
    2.6627 	   71.9760 	    6.0000 	   32.0000 	   34.6629
    2.6169 	   72.8070 	    6.0000 	   32.0000 	   35.4940
    2.6932 	   73.6010 	    6.0000 	   32.0000 	   36.2880
    2.7543 	   74.4290 	    6.0000 	   32.0000 	   37.1161
    2.6474 	   75.2090 	    6.0000 	   32.0000 	   37.8961
    2.7390 	   76.0090 	    6.0000 	   32.0000 	   38.6962
    2.6322 	   76.8040 	    6.0000 	   32.0000 	   39.4912
    2.6474 	   77.6200 	    6.0000 	   32.0000 	   40.3073
    2.7237 	   78.4180 	    6.0000 	   32.0000 	   41.1053
    2.6474 	   79.2600 	    6.0000 	   32.0000 	   41.9474
    2.7848 	   80.0450 	    6.0000 	   32.0000 	   42.7324
    2.6169 	   80.8540 	    6.0000 	   32.0000 	   43.5415
    2.6169 	   81.6710 	    6.0000 	   32.0000 	   44.3585
    2.6017 	   82.4860 	    6.0000 	   32.0000 	   45.1736
    2.7695 	   83.2840 	    6.0000 	   32.0000 	   45.9716
    2.7237 	   84.1290 	    6.0000 	   32.0000 	   46.8166
    2.6780 	   84.9760 	    6.0000 	   32.0000 	   47.6627
    2.6932 	   85.7930 	    6.0000 	   32.0000 	   48.4797
    2.5711 	   86.6170 	    6.0000 	   32.0000 	   49.3038
    2.6017 	   87.4400 	    6.0000 	   32.0000 	   50.1268
    2.5864 	   88.2830 	    6.0000 	   32.0000 	   50.9699
    2.8153 	   89.1100 	    6.0000 	   32.0000 	   51.7969
    2.6017 	   89.9520 	    6.0000 	   32.0000 	   52.6390
    2.7237 	   90.7970 	    6.0000 	   32.0000 	   53.4840
    2.5254 	   91.6510 	    6.0000 	   32.0000 	   54.3381
    2.1744 	   92.5020 	    6.0000 	   32.0000 	   55.1891
    2.0218 	   93.3370 	    6.0000 	   32.0000 	   56.0242
    1.7929 	   94.1790 	    6.0000 	   32.0000 	   56.8662
    1.7624 	   95.0390 	    6.0000 	   32.0000 	   57.7263
    1.6403 	   95.9100 	    6.0000 	   32.0000 	   58.5973
    1.5946 	   96.7890 	    6.0000 	   32.0000 	   59.4764
    1.3199 	   97.6530 	    6.0000 	   33.0000 	    0.3404
    1.2894 	   98.5170 	    6.0000 	   33.0000 	    1.2045
    1.4115 	   99.3660 	    6.0000 	   33.0000 	    2.0535
    1.3504 	  100.2490 	    6.0000 	   33.0000 	    2.9366
    1.3352 	  101.1450 	    6.0000 	   33.0000 	    3.8326
    1.3657 	  102.0200 	    6.0000 	   33.0000 	    4.7067
    1.1063 	  102.8680 	    6.0000 	   33.0000 	    5.5547
    1.0452 	  103.7460 	    6.0000 	   33.0000 	    6.4328
    1.1826 	  104.6100 	    6.0000 	   33.0000 	    7.2968
    0.9995 	  105.4810 	    6.0000 	   33.0000 	    8.1679
    1.0452 	  106.3550 	    6.0000 	   33.0000 	    9.0419
    0.9689 	  107.2110 	    6.0000 	   33.0000 	    9.8980
    0.8469 	  108.0810 	    6.0000 	   33.0000 	   10.7680
    0.8774 	  108.9620 	    6.0000 	   33.0000 	   11.6491
    0.7706 	  109.8600 	    6.0000 	   33.0000 	   12.5471
    0.9079 	  110.7500 	    6.0000 	   33.0000 	   13.4372
    0.7248 	  111.6280 	    6.0000 	   33.0000 	   14.3152
    0.9537 	  112.5080 	    6.0000 	   33.0000 	   15.1953
    0.9232 	  113.4140 	    6.0000 	   33.0000 	   16.1013
    0.9232 	  114.3080 	    6.0000 	   33.0000 	   16.9954
    0.6943 	  115.1960 	    6.0000 	   33.0000 	   17.8834
    0.8621 	  116.0960 	    6.0000 	   33.0000 	   18.7835
    0.7706 	  116.9680 	    6.0000 	   33.0000 	   19.6555
    0.7706 	  117.8950 	    6.0000 	   33.0000 	   20.5826
    0.7553 	  118.8200 	    6.0000 	   33.0000 	   21.5076
    0.8927 	  119.7220 	    6.0000 	   33.0000 	   22.4097
    0.6332 	  120.6010 	    6.0000 	   33.0000 	   23.2877
    0.6790 	  121.5110 	    6.0000 	   33.0000 	   24.1978
    0.6027 	  122.4810 	    6.0000 	   33.0000 	   25.1678
    0.6485 	  123.3990 	    6.0000 	   33.0000 	   26.0859
    0.6332 	  124.2820 	    6.0000 	   33.0000 	   26.9689
    0.6180 	  125.1900 	    6.0000 	   33.0000 	   27.8770
    0.6485 	  126.1120 	    6.0000 	   33.0000 	   28.7990
    0.5264 	  127.0470 	    6.0000 	   33.0000 	   29.7341
    0.3586 	  127.9930 	    6.0000 	   33.0000 	   30.6802
    0.5264 	  128.9170 	    6.0000 	   33.0000 	   31.6042
    0.6332 	  129.8700 	    6.0000 	   33.0000 	   32.5573
    0.2976 	  130.8120 	    6.0000 	   33.0000 	   33.4993
    0.6485 	  130.8560 	    6.0000 	   33.0000 	   33.5433