Folder: Smart-Fabrics/instron/deadline/hysteresis/bare_20_1

File: bare_20_1_60_120.txt
Thayer School of Engineering        Instron 4442 Mechanical Testing System
7/9/2018 3:05:53 AM

  Force (N)	Extension (mm)	Not Used	Not Used	Not Used	     Hour	    Minute	    Second
    0.4654 	    2.0620 	    3.0000 	    6.0000 	   13.2518
    0.3738 	    2.9720 	    3.0000 	    6.0000 	   13.7068
    0.5264 	    3.9340 	    3.0000 	    6.0000 	   14.1878
    0.3891 	    4.8060 	    3.0000 	    6.0000 	   14.6238
    0.3281 	    5.7720 	    3.0000 	    6.0000 	   15.1069
    0.3738 	    6.6600 	    3.0000 	    6.0000 	   15.5509
    0.4044 	    7.3140 	    3.0000 	    6.0000 	   15.8779
    0.3586 	    7.9600 	    3.0000 	    6.0000 	   16.2009
    0.3586 	    8.5780 	    3.0000 	    6.0000 	   16.5099
    0.3891 	    9.1620 	    3.0000 	    6.0000 	   16.8020
    0.2976 	    9.7700 	    3.0000 	    6.0000 	   17.1060
    0.3891 	   10.3900 	    3.0000 	    6.0000 	   17.4160
    0.4044 	   10.9740 	    3.0000 	    6.0000 	   17.7080
    0.4196 	   11.5940 	    3.0000 	    6.0000 	   18.0170
    0.5875 	   12.2240 	    3.0000 	    6.0000 	   18.3320
    0.3586 	   12.8300 	    3.0000 	    6.0000 	   18.6351
    0.4349 	   13.4920 	    3.0000 	    6.0000 	   18.9661
    0.3586 	   14.1480 	    3.0000 	    6.0000 	   19.2941
    0.4349 	   14.7180 	    3.0000 	    6.0000 	   19.5791
    0.5264 	   15.3600 	    3.0000 	    6.0000 	   19.9001
    0.3586 	   16.0240 	    3.0000 	    6.0000 	   20.2322
    0.3433 	   16.6240 	    3.0000 	    6.0000 	   20.5322
    0.5417 	   17.1960 	    3.0000 	    6.0000 	   20.8182
    0.5570 	   17.7840 	    3.0000 	    6.0000 	   21.1122
    0.4959 	   18.3840 	    3.0000 	    6.0000 	   21.4122
    0.0992 	   18.9560 	    3.0000 	    6.0000 	   21.6982
    0.4349 	   19.5580 	    3.0000 	    6.0000 	   21.9993
    0.5570 	   20.1240 	    3.0000 	    6.0000 	   22.2823
    0.5875 	   20.6840 	    3.0000 	    6.0000 	   22.5623
    0.5264 	   21.2980 	    3.0000 	    6.0000 	   22.8693
    0.4196 	   21.9620 	    3.0000 	    6.0000 	   23.2013
    0.5112 	   22.5820 	    3.0000 	    6.0000 	   23.5113
    0.4044 	   23.2040 	    3.0000 	    6.0000 	   23.8224
    0.4044 	   23.8700 	    3.0000 	    6.0000 	   24.1554
    0.4349 	   24.5020 	    3.0000 	    6.0000 	   24.4714
    0.4654 	   25.1040 	    3.0000 	    6.0000 	   24.7724
    0.4196 	   25.7620 	    3.0000 	    6.0000 	   25.1014
    0.6485 	   26.4180 	    3.0000 	    6.0000 	   25.4295
    0.5264 	   27.0060 	    3.0000 	    6.0000 	   25.7235
    0.6943 	   27.6700 	    3.0000 	    6.0000 	   26.0555
    0.1602 	   28.3360 	    3.0000 	    6.0000 	   26.3885
    0.5417 	   28.9260 	    3.0000 	    6.0000 	   26.6835
    0.4349 	   29.5660 	    3.0000 	    6.0000 	   27.0035
    0.3738 	   30.2340 	    3.0000 	    6.0000 	   27.3376
    0.6332 	   30.8280 	    3.0000 	    6.0000 	   27.6346
    0.5875 	   31.4940 	    3.0000 	    6.0000 	   27.9676
    0.6332 	   32.1740 	    3.0000 	    6.0000 	   28.3076
    0.4807 	   32.7880 	    3.0000 	    6.0000 	   28.6146
    0.8011 	   33.4420 	    3.0000 	    6.0000 	   28.9417
    0.4044 	   34.1120 	    3.0000 	    6.0000 	   29.2767
    0.5570 	   34.7500 	    3.0000 	    6.0000 	   29.5957
    0.6332 	   35.3820 	    3.0000 	    6.0000 	   29.9117
    0.5722 	   36.0460 	    3.0000 	    6.0000 	   30.2437
    0.3281 	   36.6820 	    3.0000 	    6.0000 	   30.5617
    0.4959 	   37.3040 	    3.0000 	    6.0000 	   30.8728
    0.5417 	   37.9280 	    3.0000 	    6.0000 	   31.1848
    0.5417 	   38.5900 	    3.0000 	    6.0000 	   31.5158
    0.6638 	   39.1860 	    3.0000 	    6.0000 	   31.8138
    0.5417 	   39.8360 	    3.0000 	    6.0000 	   32.1388
    0.6638 	   40.5080 	    3.0000 	    6.0000 	   32.4749
    0.6485 	   41.1200 	    3.0000 	    6.0000 	   32.7809
    0.6027 	   41.8000 	    3.0000 	    6.0000 	   33.1209
    0.6180 	   42.4780 	    3.0000 	    6.0000 	   33.4599
    0.6638 	   43.1120 	    3.0000 	    6.0000 	   33.7769
    0.6332 	   43.7880 	    3.0000 	    6.0000 	   34.1149
    0.6332 	   44.4840 	    3.0000 	    6.0000 	   34.4630
    0.6790 	   45.1160 	    3.0000 	    6.0000 	   34.7790
    0.5570 	   45.8080 	    3.0000 	    6.0000 	   35.1250
    0.3738 	   46.5100 	    3.0000 	    6.0000 	   35.4750
    0.6180 	   47.1440 	    3.0000 	    6.0000 	   35.7920
    0.6790 	   47.8180 	    3.0000 	    6.0000 	   36.1291
    0.7706 	   48.5240 	    3.0000 	    6.0000 	   36.4821
    0.7706 	   49.1580 	    3.0000 	    6.0000 	   36.7991
    0.8316 	   49.8220 	    3.0000 	    6.0000 	   37.1311
    0.7248 	   50.5260 	    3.0000 	    6.0000 	   37.4831
    0.8621 	   51.1740 	    3.0000 	    6.0000 	   37.8072
    0.7553 	   51.8680 	    3.0000 	    6.0000 	   38.1542
    0.6485 	   52.5380 	    3.0000 	    6.0000 	   38.4892
    0.6332 	   53.1800 	    3.0000 	    6.0000 	   38.8102
    0.7401 	   53.8860 	    3.0000 	    6.0000 	   39.1632
    0.6943 	   54.5800 	    3.0000 	    6.0000 	   39.5103
    0.6485 	   55.2520 	    3.0000 	    6.0000 	   39.8463
    0.7553 	   55.9620 	    3.0000 	    6.0000 	   40.2013
    0.6332 	   56.6640 	    3.0000 	    6.0000 	   40.5523
    0.7553 	   57.3060 	    3.0000 	    6.0000 	   40.8733
    0.6180 	   57.9960 	    3.0000 	    6.0000 	   41.2184
    0.6943 	   58.6940 	    3.0000 	    6.0000 	   41.5674
    0.6638 	   59.3520 	    3.0000 	    6.0000 	   41.8964
    0.5417 	   60.0580 	    3.0000 	    6.0000 	   42.2494
    0.5875 	   60.7600 	    3.0000 	    6.0000 	   42.6004
    0.5570 	   61.4460 	    3.0000 	    6.0000 	   42.9435
    0.5112 	   62.1800 	    3.0000 	    6.0000 	   43.3105
    0.5875 	   62.8760 	    3.0000 	    6.0000 	   43.6585
    0.4501 	   63.5320 	    3.0000 	    6.0000 	   43.9865
    0.5570 	   64.2240 	    3.0000 	    6.0000 	   44.3325
    0.4807 	   64.9160 	    3.0000 	    6.0000 	   44.6786
    0.6485 	   65.6120 	    3.0000 	    6.0000 	   45.0266
    0.5264 	   66.2880 	    3.0000 	    6.0000 	   45.3646
    0.5112 	   66.9540 	    3.0000 	    6.0000 	   45.6976
    0.4196 	   67.6860 	    3.0000 	    6.0000 	   46.0636
    0.6638 	   68.3820 	    3.0000 	    6.0000 	   46.4117
    0.5570 	   69.0660 	    3.0000 	    6.0000 	   46.7537
    0.1297 	   69.7860 	    3.0000 	    6.0000 	   47.1137
    0.5875 	   70.5380 	    3.0000 	    6.0000 	   47.4897
    0.2823 	   71.2120 	    3.0000 	    6.0000 	   47.8267
    0.5264 	   71.9120 	    3.0000 	    6.0000 	   48.1768
    0.5417 	   72.6720 	    3.0000 	    6.0000 	   48.5568
    0.4349 	   73.3820 	    3.0000 	    6.0000 	   48.9118
    0.4501 	   74.1320 	    3.0000 	    6.0000 	   49.2868
    0.4501 	   74.8680 	    3.0000 	    6.0000 	   49.6548
    0.4654 	   75.6060 	    3.0000 	    6.0000 	   50.0239
    0.5570 	   76.3540 	    3.0000 	    6.0000 	   50.3979
    0.4959 	   77.0520 	    3.0000 	    6.0000 	   50.7469
    0.3586 	   77.7960 	    3.0000 	    6.0000 	   51.1189
    0.6332 	   78.5280 	    3.0000 	    6.0000 	   51.4849
    0.4807 	   79.2540 	    3.0000 	    6.0000 	   51.8480
    0.4349 	   80.0220 	    3.0000 	    6.0000 	   52.2320
    0.4196 	   80.7740 	    3.0000 	    6.0000 	   52.6080
    0.4196 	   81.5000 	    3.0000 	    6.0000 	   52.9700
    0.4807 	   82.2680 	    3.0000 	    6.0000 	   53.3540
    0.4807 	   82.9920 	    3.0000 	    6.0000 	   53.7151
    0.3433 	   83.7340 	    3.0000 	    6.0000 	   54.0871
    0.3586 	   84.4860 	    3.0000 	    6.0000 	   54.4631
    0.4349 	   85.2040 	    3.0000 	    6.0000 	   54.8221
    0.4654 	   85.9600 	    3.0000 	    6.0000 	   55.2002
    0.3128 	   86.7020 	    3.0000 	    6.0000 	   55.5712
    0.3891 	   87.4280 	    3.0000 	    6.0000 	   55.9342
    0.3128 	   88.1740 	    3.0000 	    6.0000 	   56.3072
    0.3891 	   88.8720 	    3.0000 	    6.0000 	   56.6562
    0.4807 	   89.6120 	    3.0000 	    6.0000 	   57.0263
    0.3891 	   90.3780 	    3.0000 	    6.0000 	   57.4093
    0.4349 	   91.1200 	    3.0000 	    6.0000 	   57.7803
    0.3586 	   91.8620 	    3.0000 	    6.0000 	   58.1513
    0.4044 	   92.6460 	    3.0000 	    6.0000 	   58.5433
    0.3433 	   93.3580 	    3.0000 	    6.0000 	   58.8994
    0.1297 	   94.1160 	    3.0000 	    6.0000 	   59.2784
    0.4044 	   94.8840 	    3.0000 	    6.0000 	   59.6624
    0.3738 	   95.6380 	    3.0000 	    7.0000 	    0.0394
    0.3738 	   96.4180 	    3.0000 	    7.0000 	    0.4295
    0.2365 	   97.1660 	    3.0000 	    7.0000 	    0.8035
    0.3128 	   97.9580 	    3.0000 	    7.0000 	    1.1995
    0.3738 	   98.7160 	    3.0000 	    7.0000 	    1.5785
    0.4654 	   99.4560 	    3.0000 	    7.0000 	    1.9485
    0.3738 	  100.2300 	    3.0000 	    7.0000 	    2.3356
    0.0534 	  100.9540 	    3.0000 	    7.0000 	    2.6976
    0.2976 	  101.7180 	    3.0000 	    7.0000 	    3.0796
    0.3281 	  102.5060 	    3.0000 	    7.0000 	    3.4736
    0.2823 	  103.2480 	    3.0000 	    7.0000 	    3.8446
    0.2976 	  104.1380 	    3.0000 	    7.0000 	    4.2897
    0.1907 	  104.9140 	    3.0000 	    7.0000 	    4.6777
    0.1450 	  105.6840 	    3.0000 	    7.0000 	    5.0627
    0.2365 	  106.4100 	    3.0000 	    7.0000 	    5.4257
    0.2976 	  107.1240 	    3.0000 	    7.0000 	    5.7828
    0.3586 	  107.9040 	    3.0000 	    7.0000 	    6.1728
    0.2518 	  108.6860 	    3.0000 	    7.0000 	    6.5638
    0.3281 	  108.7620 	    3.0000 	    7.0000 	    6.6018