Folder: Smart-Fabrics/instron/deadline/hysteresis/bare_15_2

File: bare_15_2_60_120.txt
Thayer School of Engineering        Instron 4442 Mechanical Testing System
7/9/2018 2:36:33 AM

  Force (N)	Extension (mm)	Not Used	Not Used	Not Used	     Hour	    Minute	    Second
    0.4654 	    2.0480 	    2.0000 	   36.0000 	   57.4263
    0.2976 	    3.0520 	    2.0000 	   36.0000 	   57.9284
    0.2060 	    4.0860 	    2.0000 	   36.0000 	   58.4454
    0.5264 	    5.0780 	    2.0000 	   36.0000 	   58.9414
    0.5875 	    6.1060 	    2.0000 	   36.0000 	   59.4554
    0.4501 	    6.9100 	    2.0000 	   36.0000 	   59.8565
    0.3738 	    7.5580 	    2.0000 	   37.0000 	    0.1805
    0.4959 	    8.2180 	    2.0000 	   37.0000 	    0.5105
    0.4501 	    8.8760 	    2.0000 	   37.0000 	    0.8395
    0.4501 	    9.5100 	    2.0000 	   37.0000 	    1.1565
    0.4349 	   10.1640 	    2.0000 	   37.0000 	    1.4836
    0.6027 	   10.8220 	    2.0000 	   37.0000 	    1.8126
    0.3738 	   11.4560 	    2.0000 	   37.0000 	    2.1296
    0.5417 	   12.0740 	    2.0000 	   37.0000 	    2.4386
    0.5417 	   12.6940 	    2.0000 	   37.0000 	    2.7486
    0.4959 	   13.3300 	    2.0000 	   37.0000 	    3.0666
    0.6180 	   13.9620 	    2.0000 	   37.0000 	    3.3827
    0.4807 	   14.5980 	    2.0000 	   37.0000 	    3.7007
    0.1907 	   15.2280 	    2.0000 	   37.0000 	    4.0157
    0.6638 	   15.9220 	    2.0000 	   37.0000 	    4.3627
    0.4654 	   16.5580 	    2.0000 	   37.0000 	    4.6807
    0.6027 	   17.2060 	    2.0000 	   37.0000 	    5.0048
    0.5722 	   17.8580 	    2.0000 	   37.0000 	    5.3308
    0.6332 	   18.5180 	    2.0000 	   37.0000 	    5.6608
    0.6790 	   19.1660 	    2.0000 	   37.0000 	    5.9848
    0.5722 	   19.8060 	    2.0000 	   37.0000 	    6.3048
    0.6485 	   20.4480 	    2.0000 	   37.0000 	    6.6259
    0.7858 	   21.0700 	    2.0000 	   37.0000 	    6.9369
    0.5722 	   21.7040 	    2.0000 	   37.0000 	    7.2539
    0.7706 	   22.3520 	    2.0000 	   37.0000 	    7.5779
    0.6943 	   22.9980 	    2.0000 	   37.0000 	    7.9009
    0.5722 	   23.6540 	    2.0000 	   37.0000 	    8.2289
    0.8621 	   24.3000 	    2.0000 	   37.0000 	    8.5520
    0.6790 	   24.9400 	    2.0000 	   37.0000 	    8.8720
    0.5875 	   25.5860 	    2.0000 	   37.0000 	    9.1950
    0.7706 	   26.2480 	    2.0000 	   37.0000 	    9.5260
    0.6180 	   26.9640 	    2.0000 	   37.0000 	    9.8840
    0.6790 	   27.6060 	    2.0000 	   37.0000 	   10.2051
    0.6638 	   28.2680 	    2.0000 	   37.0000 	   10.5361
    0.8164 	   28.9380 	    2.0000 	   37.0000 	   10.8711
    0.8621 	   29.6000 	    2.0000 	   37.0000 	   11.2021
    0.9079 	   30.2780 	    2.0000 	   37.0000 	   11.5411
    0.7706 	   30.9300 	    2.0000 	   37.0000 	   11.8672
    0.7553 	   31.6100 	    2.0000 	   37.0000 	   12.2072
    0.7553 	   32.2800 	    2.0000 	   37.0000 	   12.5422
    0.8164 	   32.9380 	    2.0000 	   37.0000 	   12.8712
    0.7706 	   33.6060 	    2.0000 	   37.0000 	   13.2052
    0.7401 	   34.2680 	    2.0000 	   37.0000 	   13.5362
    0.8011 	   34.9260 	    2.0000 	   37.0000 	   13.8653
    0.9232 	   35.6020 	    2.0000 	   37.0000 	   14.2033
    0.9842 	   36.2780 	    2.0000 	   37.0000 	   14.5413
    0.9537 	   36.9440 	    2.0000 	   37.0000 	   14.8743
    0.7858 	   37.6140 	    2.0000 	   37.0000 	   15.2093
    0.8316 	   38.2980 	    2.0000 	   37.0000 	   15.5514
    0.8927 	   38.9780 	    2.0000 	   37.0000 	   15.8914
    0.9079 	   39.6500 	    2.0000 	   37.0000 	   16.2274
    0.9995 	   40.3160 	    2.0000 	   37.0000 	   16.5604
    0.9079 	   40.9140 	    2.0000 	   37.0000 	   16.8594
    0.9689 	   41.5880 	    2.0000 	   37.0000 	   17.1955
    0.9689 	   42.2740 	    2.0000 	   37.0000 	   17.5385
    0.9079 	   42.9400 	    2.0000 	   37.0000 	   17.8715
    0.9842 	   43.6260 	    2.0000 	   37.0000 	   18.2145
    0.9842 	   44.2820 	    2.0000 	   37.0000 	   18.5425
    0.8621 	   44.9420 	    2.0000 	   37.0000 	   18.8726
    0.9537 	   45.5580 	    2.0000 	   37.0000 	   19.1806
    0.9384 	   46.2000 	    2.0000 	   37.0000 	   19.5016
    1.0300 	   46.8760 	    2.0000 	   37.0000 	   19.8396
    1.1673 	   47.5220 	    2.0000 	   37.0000 	   20.1626
    0.9384 	   48.2200 	    2.0000 	   37.0000 	   20.5116
    1.0605 	   48.9000 	    2.0000 	   37.0000 	   20.8517
    1.0147 	   49.5760 	    2.0000 	   37.0000 	   21.1897
    0.9995 	   50.2580 	    2.0000 	   37.0000 	   21.5307
    1.1521 	   50.9340 	    2.0000 	   37.0000 	   21.8687
    1.0605 	   51.6260 	    2.0000 	   37.0000 	   22.2147
    1.1063 	   52.3020 	    2.0000 	   37.0000 	   22.5528
    1.1215 	   52.9880 	    2.0000 	   37.0000 	   22.8958
    1.1521 	   53.6740 	    2.0000 	   37.0000 	   23.2388
    1.1215 	   54.3700 	    2.0000 	   37.0000 	   23.5868
    1.1673 	   55.0660 	    2.0000 	   37.0000 	   23.9348
    1.2436 	   55.7700 	    2.0000 	   37.0000 	   24.2869
    1.0300 	   56.4800 	    2.0000 	   37.0000 	   24.6419
    1.1826 	   57.1860 	    2.0000 	   37.0000 	   24.9949
    1.2589 	   57.8860 	    2.0000 	   37.0000 	   25.3449
    1.3046 	   58.5860 	    2.0000 	   37.0000 	   25.6949
    1.2131 	   59.2680 	    2.0000 	   37.0000 	   26.0360
    1.1978 	   59.9260 	    2.0000 	   37.0000 	   26.3650
    1.1673 	   60.5940 	    2.0000 	   37.0000 	   26.6990
    1.0910 	   61.3160 	    2.0000 	   37.0000 	   27.0600
    1.0452 	   62.0000 	    2.0000 	   37.0000 	   27.4020
    1.0605 	   62.7320 	    2.0000 	   37.0000 	   27.7681
    0.9384 	   63.4140 	    2.0000 	   37.0000 	   28.1091
    0.9537 	   64.0940 	    2.0000 	   37.0000 	   28.4491
    0.9384 	   64.8120 	    2.0000 	   37.0000 	   28.8081
    1.0300 	   65.5320 	    2.0000 	   37.0000 	   29.1681
    0.9537 	   66.2420 	    2.0000 	   37.0000 	   29.5232
    1.0910 	   66.9520 	    2.0000 	   37.0000 	   29.8782
    0.8774 	   67.6700 	    2.0000 	   37.0000 	   30.2372
    0.9232 	   68.3940 	    2.0000 	   37.0000 	   30.5992
    0.8621 	   69.1140 	    2.0000 	   37.0000 	   30.9592
    0.7706 	   69.7660 	    2.0000 	   37.0000 	   31.2853
    0.8774 	   70.4620 	    2.0000 	   37.0000 	   31.6333
    0.8011 	   71.1360 	    2.0000 	   37.0000 	   31.9703
    0.4807 	   71.8560 	    2.0000 	   37.0000 	   32.3303
    0.8164 	   72.5820 	    2.0000 	   37.0000 	   32.6933
    0.7248 	   73.3180 	    2.0000 	   37.0000 	   33.0614
    0.8164 	   74.0520 	    2.0000 	   37.0000 	   33.4284
    0.6638 	   74.8040 	    2.0000 	   37.0000 	   33.8044
    0.9232 	   75.5080 	    2.0000 	   37.0000 	   34.1564
    0.7248 	   76.2520 	    2.0000 	   37.0000 	   34.5275
    0.5722 	   76.9880 	    2.0000 	   37.0000 	   34.8955
    0.7706 	   77.7220 	    2.0000 	   37.0000 	   35.2625
    0.6943 	   78.4640 	    2.0000 	   37.0000 	   35.6335
    0.5112 	   79.2000 	    2.0000 	   37.0000 	   36.0015
    0.6180 	   79.9320 	    2.0000 	   37.0000 	   36.3676
    0.6485 	   80.6120 	    2.0000 	   37.0000 	   36.7076
    0.6485 	   81.3120 	    2.0000 	   37.0000 	   37.0576
    0.6180 	   82.0640 	    2.0000 	   37.0000 	   37.4336
    0.6638 	   82.8260 	    2.0000 	   37.0000 	   37.8146
    0.6485 	   83.5840 	    2.0000 	   37.0000 	   38.1937
    0.6943 	   84.3360 	    2.0000 	   37.0000 	   38.5697
    0.7401 	   85.0720 	    2.0000 	   37.0000 	   38.9377
    0.5417 	   85.8180 	    2.0000 	   37.0000 	   39.3107
    0.3891 	   86.5820 	    2.0000 	   37.0000 	   39.6927
    0.5112 	   87.2940 	    2.0000 	   37.0000 	   40.0488
    0.6790 	   87.9960 	    2.0000 	   37.0000 	   40.3998
    0.6332 	   88.7540 	    2.0000 	   37.0000 	   40.7788
    0.6332 	   89.5060 	    2.0000 	   37.0000 	   41.1548
    0.6180 	   90.2220 	    2.0000 	   37.0000 	   41.5128
    0.6332 	   90.9800 	    2.0000 	   37.0000 	   41.8919
    0.4959 	   91.7400 	    2.0000 	   37.0000 	   42.2719
    0.5112 	   92.5000 	    2.0000 	   37.0000 	   42.6519
    0.6638 	   93.2540 	    2.0000 	   37.0000 	   43.0289
    0.6638 	   94.0120 	    2.0000 	   37.0000 	   43.4080
    0.4044 	   94.7880 	    2.0000 	   37.0000 	   43.7960
    0.5417 	   95.5520 	    2.0000 	   37.0000 	   44.1780
    0.6180 	   96.3200 	    2.0000 	   37.0000 	   44.5620
    0.6027 	   97.0800 	    2.0000 	   37.0000 	   44.9420
    0.5264 	   97.8360 	    2.0000 	   37.0000 	   45.3201
    0.5417 	   98.6080 	    2.0000 	   37.0000 	   45.7061
    0.6027 	   99.3560 	    2.0000 	   37.0000 	   46.0801
    0.4044 	  100.1140 	    2.0000 	   37.0000 	   46.4591
    0.4349 	  100.8800 	    2.0000 	   37.0000 	   46.8422
    0.6180 	  101.6380 	    2.0000 	   37.0000 	   47.2212
    0.3586 	  102.4260 	    2.0000 	   37.0000 	   47.6152
    0.6180 	  103.2100 	    2.0000 	   37.0000 	   48.0072
    0.3738 	  103.9120 	    2.0000 	   37.0000 	   48.3582
    0.5112 	  104.6880 	    2.0000 	   37.0000 	   48.7463
    0.5264 	  105.4700 	    2.0000 	   37.0000 	   49.1373
    0.2518 	  106.2400 	    2.0000 	   37.0000 	   49.5223
    0.4044 	  107.0200 	    2.0000 	   37.0000 	   49.9123
    0.4654 	  107.8040 	    2.0000 	   37.0000 	   50.3044
    0.5875 	  108.5800 	    2.0000 	   37.0000 	   50.6924
    0.4501 	  109.3660 	    2.0000 	   37.0000 	   51.0854
    0.4807 	  110.1380 	    2.0000 	   37.0000 	   51.4714
    0.4959 	  110.9260 	    2.0000 	   37.0000 	   51.8654
    0.3586 	  111.7080 	    2.0000 	   37.0000 	   52.2555
    0.3891 	  112.4860 	    2.0000 	   37.0000 	   52.6445
    0.4349 	  113.2260 	    2.0000 	   37.0000 	   53.0145
    0.2976 	  113.9980 	    2.0000 	   37.0000 	   53.4005
    0.2518 	  114.7620 	    2.0000 	   37.0000 	   53.7826
    0.2976 	  115.5080 	    2.0000 	   37.0000 	   54.1556
    0.2670 	  116.2260 	    2.0000 	   37.0000 	   54.5146
    0.2518 	  116.9480 	    2.0000 	   37.0000 	   54.8756
    0.2823 	  117.7420 	    2.0000 	   37.0000 	   55.2726
    0.2518 	  118.5460 	    2.0000 	   37.0000 	   55.6747
    0.3586 	  119.3240 	    2.0000 	   37.0000 	   56.0637
    0.5417 	  120.1280 	    2.0000 	   37.0000 	   56.4657
    0.2976 	  120.9440 	    2.0000 	   37.0000 	   56.8737
    0.2213 	  121.7420 	    2.0000 	   37.0000 	   57.2728
    0.5570 	  122.2160 	    2.0000 	   37.0000 	   57.5098