Folder: Smart-Fabrics/instron/deadline/hysteresis/bare_10_1

File: bare_10_1_60_120.txt
Thayer School of Engineering        Instron 4442 Mechanical Testing System
7/9/2018 2:49:55 AM

  Force (N)	Extension (mm)	Not Used	Not Used	Not Used	     Hour	    Minute	    Second
    0.1602 	    2.0520 	    2.0000 	   50.0000 	   23.7794
    0.3586 	    3.0140 	    2.0000 	   50.0000 	   24.2605
    0.3433 	    3.9720 	    2.0000 	   50.0000 	   24.7395
    0.4959 	    5.0320 	    2.0000 	   50.0000 	   25.2695
    0.2976 	    6.0260 	    2.0000 	   50.0000 	   25.7666
    0.3891 	    6.8680 	    2.0000 	   50.0000 	   26.1876
    0.3433 	    7.5820 	    2.0000 	   50.0000 	   26.5436
    0.3738 	    8.2300 	    2.0000 	   50.0000 	   26.8686
    0.3891 	    8.9340 	    2.0000 	   50.0000 	   27.2206
    0.4349 	    9.5680 	    2.0000 	   50.0000 	   27.5377
    0.4654 	   10.2120 	    2.0000 	   50.0000 	   27.8597
    0.0839 	   10.8440 	    2.0000 	   50.0000 	   28.1757
    0.4501 	   11.4640 	    2.0000 	   50.0000 	   28.4857
    0.4654 	   12.1120 	    2.0000 	   50.0000 	   28.8097
    0.3891 	   12.7360 	    2.0000 	   50.0000 	   29.1218
    0.3891 	   13.3720 	    2.0000 	   50.0000 	   29.4398
    0.4959 	   14.0000 	    2.0000 	   50.0000 	   29.7538
    0.4654 	   14.6400 	    2.0000 	   50.0000 	   30.0738
    0.6027 	   15.2800 	    2.0000 	   50.0000 	   30.3938
    0.4196 	   15.9420 	    2.0000 	   50.0000 	   30.7248
    0.4044 	   16.5820 	    2.0000 	   50.0000 	   31.0449
    0.5112 	   17.2260 	    2.0000 	   50.0000 	   31.3669
    0.4196 	   17.8600 	    2.0000 	   50.0000 	   31.6839
    0.4349 	   18.5040 	    2.0000 	   50.0000 	   32.0059
    0.5264 	   19.1620 	    2.0000 	   50.0000 	   32.3349
    0.7858 	   19.8100 	    2.0000 	   50.0000 	   32.6590
    0.5417 	   20.4420 	    2.0000 	   50.0000 	   32.9750
    0.2518 	   21.0900 	    2.0000 	   50.0000 	   33.2990
    0.6943 	   21.7360 	    2.0000 	   50.0000 	   33.6220
    0.4654 	   22.3640 	    2.0000 	   50.0000 	   33.9360
    0.4196 	   23.0060 	    2.0000 	   50.0000 	   34.2570
    0.5875 	   23.6560 	    2.0000 	   50.0000 	   34.5821
    0.5875 	   24.3240 	    2.0000 	   50.0000 	   34.9161
    0.5875 	   24.9720 	    2.0000 	   50.0000 	   35.2401
    0.5722 	   25.6360 	    2.0000 	   50.0000 	   35.5721
    0.6638 	   26.2920 	    2.0000 	   50.0000 	   35.9001
    0.6485 	   26.9380 	    2.0000 	   50.0000 	   36.2232
    0.7095 	   27.6000 	    2.0000 	   50.0000 	   36.5542
    0.7706 	   28.2660 	    2.0000 	   50.0000 	   36.8872
    0.6180 	   28.9220 	    2.0000 	   50.0000 	   37.2152
    0.7553 	   29.5780 	    2.0000 	   50.0000 	   37.5432
    0.7095 	   30.2300 	    2.0000 	   50.0000 	   37.8693
    0.5722 	   30.8840 	    2.0000 	   50.0000 	   38.1963
    0.5875 	   31.5500 	    2.0000 	   50.0000 	   38.5293
    0.6027 	   32.2260 	    2.0000 	   50.0000 	   38.8673
    0.5417 	   32.8900 	    2.0000 	   50.0000 	   39.1983
    0.6485 	   33.5640 	    2.0000 	   50.0000 	   39.5353
    0.7095 	   34.2220 	    2.0000 	   50.0000 	   39.8644
    0.7095 	   34.8760 	    2.0000 	   50.0000 	   40.1914
    0.7248 	   35.5360 	    2.0000 	   50.0000 	   40.5214
    0.6485 	   36.2180 	    2.0000 	   50.0000 	   40.8624
    0.4349 	   36.8700 	    2.0000 	   50.0000 	   41.1884
    0.6180 	   37.5600 	    2.0000 	   50.0000 	   41.5335
    0.6638 	   38.2400 	    2.0000 	   50.0000 	   41.8735
    0.6485 	   38.9200 	    2.0000 	   50.0000 	   42.2135
    0.3128 	   39.5940 	    2.0000 	   50.0000 	   42.5505
    0.6027 	   40.2960 	    2.0000 	   50.0000 	   42.9015
    0.8316 	   40.9800 	    2.0000 	   50.0000 	   43.2436
    0.5417 	   41.6620 	    2.0000 	   50.0000 	   43.5846
    0.8316 	   42.3400 	    2.0000 	   50.0000 	   43.9236
    0.6638 	   43.0280 	    2.0000 	   50.0000 	   44.2676
    0.6943 	   43.7140 	    2.0000 	   50.0000 	   44.6106
    0.8927 	   44.3980 	    2.0000 	   50.0000 	   44.9527
    0.6790 	   45.0780 	    2.0000 	   50.0000 	   45.2927
    0.9079 	   45.7660 	    2.0000 	   50.0000 	   45.6367
    0.8469 	   46.4460 	    2.0000 	   50.0000 	   45.9767
    0.7248 	   47.2540 	    2.0000 	   50.0000 	   46.3807
    0.7553 	   47.9580 	    2.0000 	   50.0000 	   46.7328
    0.8469 	   48.6560 	    2.0000 	   50.0000 	   47.0818
    1.0605 	   49.3500 	    2.0000 	   50.0000 	   47.4288
    0.7858 	   50.0360 	    2.0000 	   50.0000 	   47.7718
    0.7858 	   50.7500 	    2.0000 	   50.0000 	   48.1288
    0.8469 	   51.4380 	    2.0000 	   50.0000 	   48.4729
    0.8011 	   52.1620 	    2.0000 	   50.0000 	   48.8349
    0.8621 	   52.8580 	    2.0000 	   50.0000 	   49.1829
    0.7553 	   53.5600 	    2.0000 	   50.0000 	   49.5339
    0.9995 	   54.2580 	    2.0000 	   50.0000 	   49.8829
    0.9232 	   54.9560 	    2.0000 	   50.0000 	   50.2320
    0.9537 	   55.6680 	    2.0000 	   50.0000 	   50.5880
    0.8927 	   56.3820 	    2.0000 	   50.0000 	   50.9450
    1.1521 	   57.1020 	    2.0000 	   50.0000 	   51.3050
    0.9079 	   57.8200 	    2.0000 	   50.0000 	   51.6640
    0.8164 	   58.5300 	    2.0000 	   50.0000 	   52.0191
    0.9232 	   59.2420 	    2.0000 	   50.0000 	   52.3751
    0.9384 	   59.9540 	    2.0000 	   50.0000 	   52.7311
    1.1215 	   60.6700 	    2.0000 	   50.0000 	   53.0891
    0.9842 	   61.3860 	    2.0000 	   50.0000 	   53.4471
    0.8774 	   62.1000 	    2.0000 	   50.0000 	   53.8042
    0.9232 	   62.7660 	    2.0000 	   50.0000 	   54.1372
    0.8316 	   63.4660 	    2.0000 	   50.0000 	   54.4872
    0.9689 	   64.1840 	    2.0000 	   50.0000 	   54.8462
    0.7553 	   64.8880 	    2.0000 	   50.0000 	   55.1982
    0.7095 	   65.6120 	    2.0000 	   50.0000 	   55.5603
    0.7858 	   66.3460 	    2.0000 	   50.0000 	   55.9273
    0.6180 	   67.0720 	    2.0000 	   50.0000 	   56.2903
    0.8774 	   67.8080 	    2.0000 	   50.0000 	   56.6573
    0.6180 	   68.5400 	    2.0000 	   50.0000 	   57.0233
    0.7248 	   69.2640 	    2.0000 	   50.0000 	   57.3854
    0.7095 	   69.9820 	    2.0000 	   50.0000 	   57.7444
    0.8164 	   70.7120 	    2.0000 	   50.0000 	   58.1094
    0.7401 	   71.4040 	    2.0000 	   50.0000 	   58.4554
    0.6485 	   72.0980 	    2.0000 	   50.0000 	   58.8025
    0.7553 	   72.8200 	    2.0000 	   50.0000 	   59.1635
    0.7095 	   73.5500 	    2.0000 	   50.0000 	   59.5285
    0.5875 	   74.2840 	    2.0000 	   50.0000 	   59.8955
    0.7095 	   75.0180 	    2.0000 	   51.0000 	    0.2625
    0.7553 	   75.6960 	    2.0000 	   51.0000 	    0.6016
    0.5875 	   76.4340 	    2.0000 	   51.0000 	    0.9706
    0.7553 	   77.1680 	    2.0000 	   51.0000 	    1.3376
    0.6332 	   77.9220 	    2.0000 	   51.0000 	    1.7146
    0.6027 	   78.6640 	    2.0000 	   51.0000 	    2.0856
    0.4807 	   79.4020 	    2.0000 	   51.0000 	    2.4547
    0.5570 	   80.1460 	    2.0000 	   51.0000 	    2.8267
    0.4807 	   80.9020 	    2.0000 	   51.0000 	    3.2047
    0.6180 	   81.6380 	    2.0000 	   51.0000 	    3.5727
    0.3891 	   82.3860 	    2.0000 	   51.0000 	    3.9467
    0.6180 	   83.1320 	    2.0000 	   51.0000 	    4.3198
    0.6027 	   83.8900 	    2.0000 	   51.0000 	    4.6988
    0.5570 	   84.6540 	    2.0000 	   51.0000 	    5.0808
    0.5112 	   85.3960 	    2.0000 	   51.0000 	    5.4518
    0.4807 	   86.1400 	    2.0000 	   51.0000 	    5.8239
    0.4807 	   86.8340 	    2.0000 	   51.0000 	    6.1709
    0.4501 	   87.5620 	    2.0000 	   51.0000 	    6.5349
    0.4501 	   88.3480 	    2.0000 	   51.0000 	    6.9279
    0.6943 	   89.0740 	    2.0000 	   51.0000 	    7.2909
    0.4196 	   89.8380 	    2.0000 	   51.0000 	    7.6730
    0.3891 	   90.6080 	    2.0000 	   51.0000 	    8.0580
    0.4196 	   91.3680 	    2.0000 	   51.0000 	    8.4380
    0.3586 	   92.1380 	    2.0000 	   51.0000 	    8.8230
    0.4349 	   92.8340 	    2.0000 	   51.0000 	    9.1710
    0.4501 	   93.5400 	    2.0000 	   51.0000 	    9.5241
    0.4654 	   94.3160 	    2.0000 	   51.0000 	    9.9121
    0.4044 	   95.0940 	    2.0000 	   51.0000 	   10.3011
    0.2976 	   95.8880 	    2.0000 	   51.0000 	   10.6981
    0.4807 	   96.6680 	    2.0000 	   51.0000 	   11.0882
    0.3433 	   97.4380 	    2.0000 	   51.0000 	   11.4732
    0.5570 	   98.2280 	    2.0000 	   51.0000 	   11.8682
    0.6943 	   99.0060 	    2.0000 	   51.0000 	   12.2572
    0.5112 	   99.8080 	    2.0000 	   51.0000 	   12.6582
    0.2976 	  100.6000 	    2.0000 	   51.0000 	   13.0543
    0.1907 	  101.3860 	    2.0000 	   51.0000 	   13.4473
    0.4654 	  102.1500 	    2.0000 	   51.0000 	   13.8293
    0.4044 	  102.9360 	    2.0000 	   51.0000 	   14.2213
    0.3891 	  103.7340 	    2.0000 	   51.0000 	   14.6204
    0.2976 	  104.6160 	    2.0000 	   51.0000 	   15.0614
    0.2365 	  105.4140 	    2.0000 	   51.0000 	   15.4604
    0.2976 	  106.2040 	    2.0000 	   51.0000 	   15.8554
    0.4349 	  106.9840 	    2.0000 	   51.0000 	   16.2454
    0.3586 	  107.7620 	    2.0000 	   51.0000 	   16.6345
    0.4196 	  108.5420 	    2.0000 	   51.0000 	   17.0245
    0.4196 	  109.3460 	    2.0000 	   51.0000 	   17.4265
    0.0076 	  110.1120 	    2.0000 	   51.0000 	   17.8095
    0.1907 	  110.9100 	    2.0000 	   51.0000 	   18.2086
    0.3586 	  111.6980 	    2.0000 	   51.0000 	   18.6026
    0.4196 	  112.5020 	    2.0000 	   51.0000 	   19.0046
    0.4807 	  113.3000 	    2.0000 	   51.0000 	   19.4036
    0.2976 	  114.0800 	    2.0000 	   51.0000 	   19.7937
    0.1602 	  114.8820 	    2.0000 	   51.0000 	   20.1947
    0.2823 	  115.6940 	    2.0000 	   51.0000 	   20.6007
    0.2060 	  116.5000 	    2.0000 	   51.0000 	   21.0037
    0.3281 	  117.2880 	    2.0000 	   51.0000 	   21.3977
    0.3891 	  118.0880 	    2.0000 	   51.0000 	   21.7978
    0.3738 	  118.8960 	    2.0000 	   51.0000 	   22.2018
    0.3128 	  119.7040 	    2.0000 	   51.0000 	   22.6058
    0.2365 	  120.5200 	    2.0000 	   51.0000 	   23.0138
    0.2518 	  121.3160 	    2.0000 	   51.0000 	   23.4119
    0.4044 	  122.1180 	    2.0000 	   51.0000 	   23.8129
    0.1907 	  122.4360 	    2.0000 	   51.0000 	   23.9719