Folder: Smart-Fabrics/instron/deadline/hysteresis/blue_15_2_new

File: blue_15_2_60_120.txt
Thayer School of Engineering        Instron 4442 Mechanical Testing System
7/9/2018 3:19:53 AM

  Force (N)	Extension (mm)	Not Used	Not Used	Not Used	     Hour	    Minute	    Second
    1.3809 	    2.0380 	    3.0000 	   20.0000 	   21.6203
    1.4572 	    3.1020 	    3.0000 	   20.0000 	   22.1523
    1.4725 	    4.1960 	    3.0000 	   20.0000 	   22.6993
    1.8387 	    5.1320 	    3.0000 	   20.0000 	   23.1674
    1.8082 	    6.1540 	    3.0000 	   20.0000 	   23.6784
    1.8387 	    7.0140 	    3.0000 	   20.0000 	   24.1084
    2.0218 	    7.7500 	    3.0000 	   20.0000 	   24.4764
    1.9303 	    8.5040 	    3.0000 	   20.0000 	   24.8535
    2.2202 	    9.1500 	    3.0000 	   20.0000 	   25.1765
    2.2965 	    9.7920 	    3.0000 	   20.0000 	   25.4975
    2.4033 	   10.5240 	    3.0000 	   20.0000 	   25.8635
    2.3728 	   11.2780 	    3.0000 	   20.0000 	   26.2405
    2.2812 	   11.9760 	    3.0000 	   20.0000 	   26.5896
    2.5864 	   12.6480 	    3.0000 	   20.0000 	   26.9256
    2.5864 	   13.2920 	    3.0000 	   20.0000 	   27.2476
    2.6932 	   13.9620 	    3.0000 	   20.0000 	   27.5826
    2.7848 	   14.7200 	    3.0000 	   20.0000 	   27.9616
    2.9374 	   15.3720 	    3.0000 	   20.0000 	   28.2877
    2.7848 	   16.0380 	    3.0000 	   20.0000 	   28.6207
    2.9831 	   16.7440 	    3.0000 	   20.0000 	   28.9737
    2.9984 	   17.4520 	    3.0000 	   20.0000 	   29.3277
    3.3188 	   18.1580 	    3.0000 	   20.0000 	   29.6807
    3.2883 	   18.8340 	    3.0000 	   20.0000 	   30.0188
    3.2578 	   19.5200 	    3.0000 	   20.0000 	   30.3618
    3.5019 	   20.2020 	    3.0000 	   20.0000 	   30.7028
    3.6088 	   20.8980 	    3.0000 	   20.0000 	   31.0508
    3.5325 	   21.5200 	    3.0000 	   20.0000 	   31.3618
    3.5172 	   22.2060 	    3.0000 	   20.0000 	   31.7049
    3.6240 	   22.8940 	    3.0000 	   20.0000 	   32.0489
    3.6851 	   23.5320 	    3.0000 	   20.0000 	   32.3679
    3.6545 	   24.2340 	    3.0000 	   20.0000 	   32.7189
    3.9139 	   24.9320 	    3.0000 	   20.0000 	   33.0679
    3.9902 	   25.5560 	    3.0000 	   20.0000 	   33.3800
    4.1581 	   26.2900 	    3.0000 	   20.0000 	   33.7470
    4.1581 	   26.9720 	    3.0000 	   20.0000 	   34.0870
    4.2649 	   27.5900 	    3.0000 	   20.0000 	   34.3960
    4.0360 	   28.3040 	    3.0000 	   20.0000 	   34.7530
    4.5853 	   28.9640 	    3.0000 	   20.0000 	   35.0830
    4.4938 	   29.5800 	    3.0000 	   20.0000 	   35.3911
    4.3107 	   30.3000 	    3.0000 	   20.0000 	   35.7511
    4.7837 	   31.0040 	    3.0000 	   20.0000 	   36.1031
    4.9363 	   31.6460 	    3.0000 	   20.0000 	   36.4241
    4.8905 	   32.3400 	    3.0000 	   20.0000 	   36.7711
    5.1499 	   33.0700 	    3.0000 	   20.0000 	   37.1362
    5.1347 	   33.7000 	    3.0000 	   20.0000 	   37.4512
    5.3025 	   34.3880 	    3.0000 	   20.0000 	   37.7952
    5.3635 	   35.1100 	    3.0000 	   20.0000 	   38.1562
    5.5619 	   35.7540 	    3.0000 	   20.0000 	   38.4782
    5.7298 	   36.4740 	    3.0000 	   20.0000 	   38.8383
    5.6840 	   37.2040 	    3.0000 	   20.0000 	   39.2033
    5.7450 	   37.8720 	    3.0000 	   20.0000 	   39.5373
    5.9739 	   38.5760 	    3.0000 	   20.0000 	   39.8893
    6.2333 	   39.2900 	    3.0000 	   20.0000 	   40.2463
    6.2181 	   39.9500 	    3.0000 	   20.0000 	   40.5764
    6.4164 	   40.6780 	    3.0000 	   20.0000 	   40.9404
    6.3096 	   41.3940 	    3.0000 	   20.0000 	   41.2984
    6.7369 	   42.0780 	    3.0000 	   20.0000 	   41.6404
    6.9352 	   42.8160 	    3.0000 	   20.0000 	   42.0094
    7.0420 	   43.5280 	    3.0000 	   20.0000 	   42.3655
    7.1946 	   44.1960 	    3.0000 	   20.0000 	   42.6995
    7.1946 	   44.9200 	    3.0000 	   20.0000 	   43.0615
    7.5608 	   45.6100 	    3.0000 	   20.0000 	   43.4065
    7.6524 	   46.3120 	    3.0000 	   20.0000 	   43.7575
    7.9423 	   47.0400 	    3.0000 	   20.0000 	   44.1216
    8.2170 	   47.7080 	    3.0000 	   20.0000 	   44.4556
    8.3238 	   48.4400 	    3.0000 	   20.0000 	   44.8216
    8.4611 	   49.1500 	    3.0000 	   20.0000 	   45.1766
    8.8884 	   49.8100 	    3.0000 	   20.0000 	   45.5066
    9.0410 	   50.6160 	    3.0000 	   20.0000 	   45.9097
    9.2699 	   51.4060 	    3.0000 	   20.0000 	   46.3047
    9.6208 	   52.0900 	    3.0000 	   20.0000 	   46.6467
    9.8802 	   52.7580 	    3.0000 	   20.0000 	   46.9807
   10.3075 	   53.5820 	    3.0000 	   20.0000 	   47.3928
   10.3990 	   54.2820 	    3.0000 	   20.0000 	   47.7428
   10.6584 	   55.0300 	    3.0000 	   20.0000 	   48.1168
   10.8415 	   55.7160 	    3.0000 	   20.0000 	   48.4598
   11.4214 	   56.4660 	    3.0000 	   20.0000 	   48.8348
   11.8639 	   57.2260 	    3.0000 	   20.0000 	   49.2149
   12.1996 	   57.9020 	    3.0000 	   20.0000 	   49.5529
   12.7031 	   58.6420 	    3.0000 	   20.0000 	   49.9229
   13.1762 	   59.4600 	    3.0000 	   20.0000 	   50.3319
   12.0165 	   60.1520 	    3.0000 	   20.0000 	   50.6779
   10.8721 	   60.8860 	    3.0000 	   20.0000 	   51.0450
   10.0938 	   61.5820 	    3.0000 	   20.0000 	   51.3920
    9.3767 	   62.2900 	    3.0000 	   20.0000 	   51.7460
    8.5527 	   63.0180 	    3.0000 	   20.0000 	   52.1100
    8.0339 	   63.7040 	    3.0000 	   20.0000 	   52.4530
    7.6982 	   64.4440 	    3.0000 	   20.0000 	   52.8231
    7.2251 	   65.1940 	    3.0000 	   20.0000 	   53.1971
    7.0878 	   65.8480 	    3.0000 	   20.0000 	   53.5251
    6.6300 	   66.5400 	    3.0000 	   20.0000 	   53.8711
    6.5232 	   67.2900 	    3.0000 	   20.0000 	   54.2461
    6.1723 	   67.9620 	    3.0000 	   20.0000 	   54.5822
    6.0349 	   68.6780 	    3.0000 	   20.0000 	   54.9402
    5.7145 	   69.4040 	    3.0000 	   20.0000 	   55.3032
    5.4551 	   70.1120 	    3.0000 	   20.0000 	   55.6572
    5.2262 	   70.8560 	    3.0000 	   20.0000 	   56.0292
    5.0736 	   71.5680 	    3.0000 	   20.0000 	   56.3853
    4.9668 	   72.2760 	    3.0000 	   20.0000 	   56.7393
    4.7837 	   73.0240 	    3.0000 	   20.0000 	   57.1133
    4.4938 	   73.7260 	    3.0000 	   20.0000 	   57.4643
    4.5548 	   74.4680 	    3.0000 	   20.0000 	   57.8354
    4.5090 	   75.2220 	    3.0000 	   20.0000 	   58.2124
    4.1733 	   75.9100 	    3.0000 	   20.0000 	   58.5564
    4.1733 	   76.6800 	    3.0000 	   20.0000 	   58.9414
    4.1733 	   77.4280 	    3.0000 	   20.0000 	   59.3154
    3.8682 	   78.1220 	    3.0000 	   20.0000 	   59.6625
    3.7766 	   78.8900 	    3.0000 	   21.0000 	    0.0465
    3.7156 	   79.6180 	    3.0000 	   21.0000 	    0.4105
    3.6088 	   80.3680 	    3.0000 	   21.0000 	    0.7855
    3.5477 	   81.1320 	    3.0000 	   21.0000 	    1.1675
    3.5630 	   81.8420 	    3.0000 	   21.0000 	    1.5226
    3.2883 	   82.6140 	    3.0000 	   21.0000 	    1.9086
    3.3036 	   83.3760 	    3.0000 	   21.0000 	    2.2896
    3.2273 	   84.0860 	    3.0000 	   21.0000 	    2.6446
    2.9984 	   84.8720 	    3.0000 	   21.0000 	    3.0376
    2.8763 	   85.6200 	    3.0000 	   21.0000 	    3.4117
    2.9068 	   86.3740 	    3.0000 	   21.0000 	    3.7887
    3.0137 	   87.1440 	    3.0000 	   21.0000 	    4.1737
    2.6322 	   87.8680 	    3.0000 	   21.0000 	    4.5357
    2.5559 	   88.6400 	    3.0000 	   21.0000 	    4.9218
    2.6169 	   89.4180 	    3.0000 	   21.0000 	    5.3108
    2.5559 	   90.1540 	    3.0000 	   21.0000 	    5.6788
    2.3270 	   90.9280 	    3.0000 	   21.0000 	    6.0658
    2.3270 	   91.6820 	    3.0000 	   21.0000 	    6.4428
    2.2812 	   92.4240 	    3.0000 	   21.0000 	    6.8139
    2.2202 	   93.2160 	    3.0000 	   21.0000 	    7.2099
    2.2202 	   93.9360 	    3.0000 	   21.0000 	    7.5699
    2.1897 	   94.7060 	    3.0000 	   21.0000 	    7.9549
    2.1897 	   95.4940 	    3.0000 	   21.0000 	    8.3480
    1.9455 	   96.2160 	    3.0000 	   21.0000 	    8.7100
    2.0066 	   96.9880 	    3.0000 	   21.0000 	    9.0950
    1.8387 	   97.7320 	    3.0000 	   21.0000 	    9.4670
    1.7929 	   98.4760 	    3.0000 	   21.0000 	    9.8390
    1.8845 	   99.2320 	    3.0000 	   21.0000 	   10.2171
    1.7624 	   99.9820 	    3.0000 	   21.0000 	   10.5921
    1.6098 	  100.7920 	    3.0000 	   21.0000 	   10.9971
    1.6556 	  101.5740 	    3.0000 	   21.0000 	   11.3881
    1.1673 	  102.3160 	    3.0000 	   21.0000 	   11.7591
    1.6251 	  103.1200 	    3.0000 	   21.0000 	   12.1612
    1.3504 	  103.8640 	    3.0000 	   21.0000 	   12.5332
    1.2741 	  104.6220 	    3.0000 	   21.0000 	   12.9122
    1.2894 	  105.4180 	    3.0000 	   21.0000 	   13.3102
    1.2131 	  106.1700 	    3.0000 	   21.0000 	   13.6863
    1.0300 	  106.9600 	    3.0000 	   21.0000 	   14.0813
    1.1063 	  107.7580 	    3.0000 	   21.0000 	   14.4803
    1.0605 	  108.5180 	    3.0000 	   21.0000 	   14.8603
    0.8316 	  109.3120 	    3.0000 	   21.0000 	   15.2573
    0.9995 	  110.0380 	    3.0000 	   21.0000 	   15.6204
    0.5722 	  110.8400 	    3.0000 	   21.0000 	   16.0214
    0.6332 	  111.6340 	    3.0000 	   21.0000 	   16.4184
    0.4959 	  112.3920 	    3.0000 	   21.0000 	   16.7974
    0.5112 	  113.2180 	    3.0000 	   21.0000 	   17.2105
    0.5722 	  113.9820 	    3.0000 	   21.0000 	   17.5925
    0.1297 	  114.7860 	    3.0000 	   21.0000 	   17.9945
    0.3738 	  115.5920 	    3.0000 	   21.0000 	   18.3975
    0.2976 	  116.3640 	    3.0000 	   21.0000 	   18.7835
    0.2823 	  117.1800 	    3.0000 	   21.0000 	   19.1916
    0.2518 	  117.9700 	    3.0000 	   21.0000 	   19.5866
    0.3128 	  118.7600 	    3.0000 	   21.0000 	   19.9816
    0.3128 	  119.5820 	    3.0000 	   21.0000 	   20.3926
    0.3281 	  120.3480 	    3.0000 	   21.0000 	   20.7757
    0.4349 	  121.1780 	    3.0000 	   21.0000 	   21.1907
    0.4959 	  121.6180 	    3.0000 	   21.0000 	   21.4107