Folder: Smart-Fabrics/instron/deadline/size/bare_15_1_new

File: bare_15_1_60_120.txt
Thayer School of Engineering        Instron 4442 Mechanical Testing System
7/9/2018 2:31:15 AM

  Force (N)	Extension (mm)	Not Used	Not Used	Not Used	     Hour	    Minute	    Second
    0.2670 	    2.0660 	    2.0000 	   31.0000 	   43.3074
    0.4807 	    3.0400 	    2.0000 	   31.0000 	   43.7944
    0.3891 	    3.9660 	    2.0000 	   31.0000 	   44.2574
    0.4196 	    4.9820 	    2.0000 	   31.0000 	   44.7654
    0.3738 	    6.0660 	    2.0000 	   31.0000 	   45.3075
    0.5722 	    6.8060 	    2.0000 	   31.0000 	   45.6775
    0.5570 	    7.4720 	    2.0000 	   31.0000 	   46.0105
    0.5264 	    8.1360 	    2.0000 	   31.0000 	   46.3425
    0.5264 	    8.8320 	    2.0000 	   31.0000 	   46.6906
    0.4959 	    9.4680 	    2.0000 	   31.0000 	   47.0086
    0.3738 	   10.1100 	    2.0000 	   31.0000 	   47.3296
    0.4196 	   10.7280 	    2.0000 	   31.0000 	   47.6386
    0.5722 	   11.3540 	    2.0000 	   31.0000 	   47.9516
    0.5875 	   11.9720 	    2.0000 	   31.0000 	   48.2606
    0.5264 	   12.6120 	    2.0000 	   31.0000 	   48.5807
    0.4654 	   13.2660 	    2.0000 	   31.0000 	   48.9077
    0.4044 	   13.9040 	    2.0000 	   31.0000 	   49.2267
    0.4349 	   14.5460 	    2.0000 	   31.0000 	   49.5477
    0.3738 	   15.1960 	    2.0000 	   31.0000 	   49.8727
    0.5112 	   15.8280 	    2.0000 	   31.0000 	   50.1888
    0.4349 	   16.4800 	    2.0000 	   31.0000 	   50.5148
    0.5417 	   17.1620 	    2.0000 	   31.0000 	   50.8558
    0.6485 	   17.7960 	    2.0000 	   31.0000 	   51.1728
    0.3891 	   18.4380 	    2.0000 	   31.0000 	   51.4938
    0.4959 	   19.0780 	    2.0000 	   31.0000 	   51.8138
    0.5112 	   19.7380 	    2.0000 	   31.0000 	   52.1439
    0.5722 	   20.3840 	    2.0000 	   31.0000 	   52.4669
    0.5875 	   21.0200 	    2.0000 	   31.0000 	   52.7849
    0.7706 	   21.6760 	    2.0000 	   31.0000 	   53.1129
    0.6638 	   22.3120 	    2.0000 	   31.0000 	   53.4309
    0.2823 	   22.9620 	    2.0000 	   31.0000 	   53.7560
    0.4807 	   23.6140 	    2.0000 	   31.0000 	   54.0820
    0.6638 	   24.2680 	    2.0000 	   31.0000 	   54.4090
    0.7706 	   24.9140 	    2.0000 	   31.0000 	   54.7320
    0.5722 	   25.5740 	    2.0000 	   31.0000 	   55.0620
    0.8011 	   26.2400 	    2.0000 	   31.0000 	   55.3951
    0.5264 	   26.8980 	    2.0000 	   31.0000 	   55.7241
    0.5417 	   27.5540 	    2.0000 	   31.0000 	   56.0521
    0.4959 	   28.2260 	    2.0000 	   31.0000 	   56.3881
    0.6485 	   28.8980 	    2.0000 	   31.0000 	   56.7241
    0.7706 	   29.5600 	    2.0000 	   31.0000 	   57.0541
    0.6790 	   30.2240 	    2.0000 	   31.0000 	   57.3872
    0.6790 	   30.8780 	    2.0000 	   31.0000 	   57.7142
    0.3738 	   31.5400 	    2.0000 	   31.0000 	   58.0452
    0.6485 	   32.2220 	    2.0000 	   31.0000 	   58.3852
    0.6332 	   32.9080 	    2.0000 	   31.0000 	   58.7282
    0.6332 	   33.5760 	    2.0000 	   31.0000 	   59.0623
    0.6485 	   34.2500 	    2.0000 	   31.0000 	   59.3993
    0.3891 	   34.9160 	    2.0000 	   31.0000 	   59.7323
    0.9079 	   35.5800 	    2.0000 	   32.0000 	    0.0643
    0.6943 	   36.1940 	    2.0000 	   32.0000 	    0.3713
    0.6638 	   36.8640 	    2.0000 	   32.0000 	    0.7064
    0.7553 	   37.5500 	    2.0000 	   32.0000 	    1.0494
    0.6943 	   38.2300 	    2.0000 	   32.0000 	    1.3894
    0.6790 	   38.9000 	    2.0000 	   32.0000 	    1.7244
    0.6638 	   39.5620 	    2.0000 	   32.0000 	    2.0554
    0.7095 	   40.2480 	    2.0000 	   32.0000 	    2.3985
    0.6943 	   40.9360 	    2.0000 	   32.0000 	    2.7425
    0.7858 	   41.6260 	    2.0000 	   32.0000 	    3.0875
    0.7553 	   42.3200 	    2.0000 	   32.0000 	    3.4345
    0.7858 	   43.0020 	    2.0000 	   32.0000 	    3.7755
    0.8316 	   43.6880 	    2.0000 	   32.0000 	    4.1186
    0.7553 	   44.3880 	    2.0000 	   32.0000 	    4.4686
    0.8316 	   45.0700 	    2.0000 	   32.0000 	    4.8096
    0.9232 	   45.7640 	    2.0000 	   32.0000 	    5.1566
    0.8621 	   46.4360 	    2.0000 	   32.0000 	    5.4926
    0.8316 	   47.1040 	    2.0000 	   32.0000 	    5.8266
    0.9842 	   47.7960 	    2.0000 	   32.0000 	    6.1727
    0.8927 	   48.4420 	    2.0000 	   32.0000 	    6.4957
    0.9232 	   49.1480 	    2.0000 	   32.0000 	    6.8487
    1.0605 	   49.8380 	    2.0000 	   32.0000 	    7.1937
    0.9537 	   50.5360 	    2.0000 	   32.0000 	    7.5427
    0.8927 	   51.2340 	    2.0000 	   32.0000 	    7.8918
    1.0147 	   51.9300 	    2.0000 	   32.0000 	    8.2398
    1.1215 	   52.6360 	    2.0000 	   32.0000 	    8.5928
    1.0300 	   53.3400 	    2.0000 	   32.0000 	    8.9448
    1.0910 	   54.0460 	    2.0000 	   32.0000 	    9.2978
    1.0452 	   54.7480 	    2.0000 	   32.0000 	    9.6489
    1.0147 	   55.4460 	    2.0000 	   32.0000 	    9.9979
    1.1826 	   56.1540 	    2.0000 	   32.0000 	   10.3519
    1.0910 	   56.8580 	    2.0000 	   32.0000 	   10.7039
    1.0910 	   57.5720 	    2.0000 	   32.0000 	   11.0609
    1.1978 	   58.2840 	    2.0000 	   32.0000 	   11.4170
    1.1521 	   58.9800 	    2.0000 	   32.0000 	   11.7650
    1.1521 	   59.6880 	    2.0000 	   32.0000 	   12.1190
    1.0758 	   60.4000 	    2.0000 	   32.0000 	   12.4750
    0.9384 	   61.1260 	    2.0000 	   32.0000 	   12.8380
    1.0605 	   61.8240 	    2.0000 	   32.0000 	   13.1871
    0.9079 	   62.5380 	    2.0000 	   32.0000 	   13.5441
    0.9842 	   63.2160 	    2.0000 	   32.0000 	   13.8831
    1.0147 	   63.8640 	    2.0000 	   32.0000 	   14.2071
    0.8927 	   64.5240 	    2.0000 	   32.0000 	   14.5371
    0.8621 	   65.1820 	    2.0000 	   32.0000 	   14.8662
    0.8164 	   65.8900 	    2.0000 	   32.0000 	   15.2202
    0.7858 	   66.6040 	    2.0000 	   32.0000 	   15.5772
    0.8164 	   67.3220 	    2.0000 	   32.0000 	   15.9352
    0.8011 	   68.0360 	    2.0000 	   32.0000 	   16.2922
    0.7858 	   68.7680 	    2.0000 	   32.0000 	   16.6583
    0.8011 	   69.4920 	    2.0000 	   32.0000 	   17.0203
    0.5875 	   70.1820 	    2.0000 	   32.0000 	   17.3653
    0.6638 	   70.9060 	    2.0000 	   32.0000 	   17.7273
    0.6485 	   71.6220 	    2.0000 	   32.0000 	   18.0854
    0.5570 	   72.3560 	    2.0000 	   32.0000 	   18.4524
    0.6790 	   73.0780 	    2.0000 	   32.0000 	   18.8134
    0.6485 	   73.8060 	    2.0000 	   32.0000 	   19.1774
    0.5264 	   74.5480 	    2.0000 	   32.0000 	   19.5484
    0.6485 	   75.2940 	    2.0000 	   32.0000 	   19.9215
    0.5570 	   76.0180 	    2.0000 	   32.0000 	   20.2835
    0.7248 	   76.7680 	    2.0000 	   32.0000 	   20.6585
    0.7095 	   77.5020 	    2.0000 	   32.0000 	   21.0255
    0.3281 	   78.2540 	    2.0000 	   32.0000 	   21.4015
    0.6180 	   78.9960 	    2.0000 	   32.0000 	   21.7726
    0.7248 	   79.7340 	    2.0000 	   32.0000 	   22.1416
    0.6485 	   80.4840 	    2.0000 	   32.0000 	   22.5166
    0.6332 	   81.2280 	    2.0000 	   32.0000 	   22.8886
    0.5112 	   81.9020 	    2.0000 	   32.0000 	   23.2256
    0.5570 	   82.5960 	    2.0000 	   32.0000 	   23.5727
    0.5875 	   83.3240 	    2.0000 	   32.0000 	   23.9367
    0.6943 	   84.0660 	    2.0000 	   32.0000 	   24.3077
    0.2365 	   84.8420 	    2.0000 	   32.0000 	   24.6957
    0.5570 	   85.5980 	    2.0000 	   32.0000 	   25.0737
    0.5112 	   86.3680 	    2.0000 	   32.0000 	   25.4588
    0.5264 	   87.1120 	    2.0000 	   32.0000 	   25.8308
    0.6027 	   87.8680 	    2.0000 	   32.0000 	   26.2088
    0.5417 	   88.6320 	    2.0000 	   32.0000 	   26.5908
    0.5570 	   89.3940 	    2.0000 	   32.0000 	   26.9719
    0.5570 	   90.1740 	    2.0000 	   32.0000 	   27.3619
    0.6027 	   90.9440 	    2.0000 	   32.0000 	   27.7469
    0.4044 	   91.6960 	    2.0000 	   32.0000 	   28.1229
    0.6790 	   92.4600 	    2.0000 	   32.0000 	   28.5049
    0.4501 	   93.2300 	    2.0000 	   32.0000 	   28.8900
    0.5722 	   94.0000 	    2.0000 	   32.0000 	   29.2750
    0.5417 	   94.7720 	    2.0000 	   32.0000 	   29.6610
    0.5875 	   95.5200 	    2.0000 	   32.0000 	   30.0350
    0.4044 	   96.2980 	    2.0000 	   32.0000 	   30.4241
    0.4654 	   97.0780 	    2.0000 	   32.0000 	   30.8141
    0.4959 	   97.8420 	    2.0000 	   32.0000 	   31.1961
    0.5875 	   98.6240 	    2.0000 	   32.0000 	   31.5871
    0.3433 	   99.3960 	    2.0000 	   32.0000 	   31.9731
    0.4349 	  100.1380 	    2.0000 	   32.0000 	   32.3442
    0.4044 	  100.9320 	    2.0000 	   32.0000 	   32.7412
    0.3433 	  101.7120 	    2.0000 	   32.0000 	   33.1312
    0.3433 	  102.4980 	    2.0000 	   32.0000 	   33.5232
    0.2823 	  103.2820 	    2.0000 	   32.0000 	   33.9153
    0.4196 	  104.0680 	    2.0000 	   32.0000 	   34.3083
    0.2060 	  104.8440 	    2.0000 	   32.0000 	   34.6963
    0.4044 	  105.6300 	    2.0000 	   32.0000 	   35.0893
    0.5722 	  106.4100 	    2.0000 	   32.0000 	   35.4793
    0.4501 	  107.1960 	    2.0000 	   32.0000 	   35.8724
    0.1907 	  107.9820 	    2.0000 	   32.0000 	   36.2654
    0.4959 	  108.7680 	    2.0000 	   32.0000 	   36.6584
    0.3433 	  109.5620 	    2.0000 	   32.0000 	   37.0554
    0.3128 	  110.3440 	    2.0000 	   32.0000 	   37.4465
    0.2976 	  111.1200 	    2.0000 	   32.0000 	   37.8345
    0.4654 	  111.8940 	    2.0000 	   32.0000 	   38.2215
    0.1450 	  112.6740 	    2.0000 	   32.0000 	   38.6115
    0.4959 	  113.4880 	    2.0000 	   32.0000 	   39.0185
    0.2976 	  114.2760 	    2.0000 	   32.0000 	   39.4126
    0.5264 	  115.0640 	    2.0000 	   32.0000 	   39.8066
    0.2365 	  115.8600 	    2.0000 	   32.0000 	   40.2046
    0.3891 	  116.6440 	    2.0000 	   32.0000 	   40.5966
    0.3738 	  117.4380 	    2.0000 	   32.0000 	   40.9937
    0.2823 	  118.2460 	    2.0000 	   32.0000 	   41.3977
    0.4196 	  119.1200 	    2.0000 	   32.0000 	   41.8347
    0.2823 	  119.9200 	    2.0000 	   32.0000 	   42.2347
    0.3433 	  120.7100 	    2.0000 	   32.0000 	   42.6298
    0.4349 	  121.1080 	    2.0000 	   32.0000 	   42.8288