Folder: Smart-Fabrics/instron/deadline/size/blue_15_2

File: blue_15_2_60_30_force.txt
Thayer School of Engineering        Instron 4442 Mechanical Testing System
7/8/2018 11:14:45 PM

  Force (N)	Extension (mm)	Not Used	Not Used	Not Used	     Hour	    Minute	    Second
    0.3281 	    0.5085 	   23.0000 	   15.0000 	   33.0441
    0.4196 	    0.9475 	   23.0000 	   15.0000 	   33.9222
    0.5112 	    1.4295 	   23.0000 	   15.0000 	   34.8862
    0.6332 	    1.8005 	   23.0000 	   15.0000 	   35.6283
    0.8011 	    2.1260 	   23.0000 	   15.0000 	   36.2793
    0.7553 	    2.4355 	   23.0000 	   15.0000 	   36.8984
    0.8774 	    2.7515 	   23.0000 	   15.0000 	   37.5304
    0.6638 	    3.0580 	   23.0000 	   15.0000 	   38.1434
    1.0147 	    3.3505 	   23.0000 	   15.0000 	   38.7285
    1.1368 	    3.6510 	   23.0000 	   15.0000 	   39.3295
    1.1063 	    3.9570 	   23.0000 	   15.0000 	   39.9415
    0.9995 	    4.2570 	   23.0000 	   15.0000 	   40.5416
    1.2436 	    4.5560 	   23.0000 	   15.0000 	   41.1396
    1.1826 	    4.8770 	   23.0000 	   15.0000 	   41.7816
    1.3199 	    5.1780 	   23.0000 	   15.0000 	   42.3837
    1.4267 	    5.4830 	   23.0000 	   15.0000 	   42.9937
    1.1978 	    5.7865 	   23.0000 	   15.0000 	   43.6007
    1.5335 	    6.0910 	   23.0000 	   15.0000 	   44.2098
    1.3962 	    6.3925 	   23.0000 	   15.0000 	   44.8118
    1.4878 	    6.6980 	   23.0000 	   15.0000 	   45.4228
    1.6556 	    7.0090 	   23.0000 	   15.0000 	   46.0449
    1.4878 	    7.3160 	   23.0000 	   15.0000 	   46.6589
    1.2741 	    7.6215 	   23.0000 	   15.0000 	   47.2700
    1.5946 	    7.9300 	   23.0000 	   15.0000 	   47.8870
    1.4878 	    8.2445 	   23.0000 	   15.0000 	   48.5160
    1.6709 	    8.5555 	   23.0000 	   15.0000 	   49.1381
    1.8082 	    8.8625 	   23.0000 	   15.0000 	   49.7521
    1.6861 	    9.1715 	   23.0000 	   15.0000 	   50.3701
    1.7014 	    9.4820 	   23.0000 	   15.0000 	   50.9912
    1.9303 	    9.7790 	   23.0000 	   15.0000 	   51.5852
    1.5640 	   10.0930 	   23.0000 	   15.0000 	   52.2132
    2.0218 	   10.3920 	   23.0000 	   15.0000 	   52.8113
    1.7929 	   10.7095 	   23.0000 	   15.0000 	   53.4463
    2.0066 	   11.0200 	   23.0000 	   15.0000 	   54.0673
    2.0218 	   11.3335 	   23.0000 	   15.0000 	   54.6944
    1.8692 	   11.6570 	   23.0000 	   15.0000 	   55.3414
    1.9150 	   11.9750 	   23.0000 	   15.0000 	   55.9775
    2.0066 	   12.2950 	   23.0000 	   15.0000 	   56.6175
    1.9913 	   12.6145 	   23.0000 	   15.0000 	   57.2565
    2.2812 	   12.9395 	   23.0000 	   15.0000 	   57.9066
    2.0676 	   13.2645 	   23.0000 	   15.0000 	   58.5566
    2.1439 	   13.5865 	   23.0000 	   15.0000 	   59.2006
    2.2507 	   13.9180 	   23.0000 	   15.0000 	   59.8637
    2.2660 	   14.2335 	   23.0000 	   16.0000 	    0.4947
    2.3270 	   14.5600 	   23.0000 	   16.0000 	    1.1477
    2.2354 	   14.8905 	   23.0000 	   16.0000 	    1.8088
    2.2507 	   15.2160 	   23.0000 	   16.0000 	    2.4588
    2.2507 	   15.5420 	   23.0000 	   16.0000 	    3.1109
    2.3270 	   15.8695 	   23.0000 	   16.0000 	    3.7649
    2.4643 	   16.1955 	   23.0000 	   16.0000 	    4.4179
    2.5406 	   16.5235 	   23.0000 	   16.0000 	    5.0740
    2.2049 	   16.8500 	   23.0000 	   16.0000 	    5.7270
    2.4948 	   17.1725 	   23.0000 	   16.0000 	    6.3720
    2.5254 	   17.5010 	   23.0000 	   16.0000 	    7.0291
    2.5406 	   17.8345 	   23.0000 	   16.0000 	    7.6961
    2.7695 	   18.1705 	   23.0000 	   16.0000 	    8.3682
    2.8000 	   18.5010 	   23.0000 	   16.0000 	    9.0292
    2.8000 	   18.8345 	   23.0000 	   16.0000 	    9.6962
    2.7848 	   19.1685 	   23.0000 	   16.0000 	   10.3643
    2.7237 	   19.5045 	   23.0000 	   16.0000 	   11.0363
    2.9068 	   19.8470 	   23.0000 	   16.0000 	   11.7214
    3.0594 	   20.1820 	   23.0000 	   16.0000 	   12.3914
    2.9068 	   20.5270 	   23.0000 	   16.0000 	   13.0814
    3.0442 	   20.8695 	   23.0000 	   16.0000 	   13.7665
    2.8458 	   21.2080 	   23.0000 	   16.0000 	   14.4435
    3.0747 	   21.5520 	   23.0000 	   16.0000 	   15.1315
    2.9374 	   21.8895 	   23.0000 	   16.0000 	   15.8066
    2.9984 	   22.2270 	   23.0000 	   16.0000 	   16.4816
    2.8763 	   22.5720 	   23.0000 	   16.0000 	   17.1717
    3.2425 	   22.9225 	   23.0000 	   16.0000 	   17.8727
    2.9831 	   23.2695 	   23.0000 	   16.0000 	   18.5667
    3.3188 	   23.6200 	   23.0000 	   16.0000 	   19.2678
    3.1968 	   23.9705 	   23.0000 	   16.0000 	   19.9678
    3.4562 	   24.3095 	   23.0000 	   16.0000 	   20.6459
    3.3494 	   24.6620 	   23.0000 	   16.0000 	   21.3509
    3.4257 	   25.0185 	   23.0000 	   16.0000 	   22.0639
    3.4257 	   25.3710 	   23.0000 	   16.0000 	   22.7690
    3.5019 	   25.7205 	   23.0000 	   16.0000 	   23.4680
    3.5630 	   26.0815 	   23.0000 	   16.0000 	   24.1901
    3.6240 	   26.4285 	   23.0000 	   16.0000 	   24.8841
    3.7156 	   26.7725 	   23.0000 	   16.0000 	   25.5721
    3.6851 	   27.1360 	   23.0000 	   16.0000 	   26.2992
    3.5935 	   27.4845 	   23.0000 	   16.0000 	   26.9962
    3.7613 	   27.8390 	   23.0000 	   16.0000 	   27.7053
    3.8529 	   28.1950 	   23.0000 	   16.0000 	   28.4173
    3.7919 	   28.5525 	   23.0000 	   16.0000 	   29.1323
    3.8987 	   28.9070 	   23.0000 	   16.0000 	   29.8414
    3.9139 	   29.2630 	   23.0000 	   16.0000 	   30.5534
    3.9139 	   29.6230 	   23.0000 	   16.0000 	   31.2725
    4.0055 	   29.9845 	   23.0000 	   16.0000 	   31.9965
    3.9292 	   30.3475 	   23.0000 	   16.0000 	   32.7226
    4.0970 	   30.7115 	   23.0000 	   16.0000 	   33.4506
    4.0970 	   31.0810 	   23.0000 	   16.0000 	   34.1896
    4.0970 	   31.4355 	   23.0000 	   16.0000 	   34.8987
    4.3259 	   31.7955 	   23.0000 	   16.0000 	   35.6187
    4.1581 	   32.1630 	   23.0000 	   16.0000 	   36.3538
    4.3717 	   32.5140 	   23.0000 	   16.0000 	   37.0558
    4.2649 	   32.8815 	   23.0000 	   16.0000 	   37.7898
    4.2802 	   33.2500 	   23.0000 	   16.0000 	   38.5269
    4.3870 	   33.6190 	   23.0000 	   16.0000 	   39.2649
    4.5090 	   33.9915 	   23.0000 	   16.0000 	   40.0100
    4.6159 	   34.3595 	   23.0000 	   16.0000 	   40.7460
    4.6616 	   34.7245 	   23.0000 	   16.0000 	   41.4761
    4.6769 	   35.0950 	   23.0000 	   16.0000 	   42.2171
    4.7074 	   35.4645 	   23.0000 	   16.0000 	   42.9561
    4.7532 	   35.8360 	   23.0000 	   16.0000 	   43.6992
    5.0278 	   36.2055 	   23.0000 	   16.0000 	   44.4382
    4.9363 	   36.5540 	   23.0000 	   16.0000 	   45.1353
    4.9363 	   36.9145 	   23.0000 	   16.0000 	   45.8563
    5.0736 	   37.2855 	   23.0000 	   16.0000 	   46.5983
    4.9821 	   37.6590 	   23.0000 	   16.0000 	   47.3454
    4.9058 	   38.0280 	   23.0000 	   16.0000 	   48.0834
    5.0736 	   38.3980 	   23.0000 	   16.0000 	   48.8235
    5.1652 	   38.7750 	   23.0000 	   16.0000 	   49.5775
    5.2262 	   39.1590 	   23.0000 	   16.0000 	   50.3456
    5.2415 	   39.5380 	   23.0000 	   16.0000 	   51.1036
    5.2873 	   39.9180 	   23.0000 	   16.0000 	   51.8636
    5.4551 	   40.2965 	   23.0000 	   16.0000 	   52.6207
    5.4093 	   40.6610 	   23.0000 	   16.0000 	   53.3497
    5.5161 	   41.0390 	   23.0000 	   16.0000 	   54.1058
    5.6992 	   41.4110 	   23.0000 	   16.0000 	   54.8488
    5.6687 	   41.7915 	   23.0000 	   16.0000 	   55.6099
    5.8671 	   42.1725 	   23.0000 	   16.0000 	   56.3719
    5.9281 	   42.5550 	   23.0000 	   16.0000 	   57.1369
    5.9434 	   42.9415 	   23.0000 	   16.0000 	   57.9100
    6.0044 	   43.3230 	   23.0000 	   16.0000 	   58.6730
    6.0349 	   43.7105 	   23.0000 	   16.0000 	   59.4481
    6.2638 	   44.0965 	   23.0000 	   17.0000 	    0.2201
    6.0960 	   44.4575 	   23.0000 	   17.0000 	    0.9422
    6.2638 	   44.8360 	   23.0000 	   17.0000 	    1.6992
    6.2791 	   45.2240 	   23.0000 	   17.0000 	    2.4753
    6.4317 	   45.5915 	   23.0000 	   17.0000 	    3.2103
    6.5843 	   45.9800 	   23.0000 	   17.0000 	    3.9873
    6.4775 	   46.3710 	   23.0000 	   17.0000 	    4.7694
    6.8132 	   46.7345 	   23.0000 	   17.0000 	    5.4964
    6.7674 	   47.1300 	   23.0000 	   17.0000 	    6.2875
    6.6758 	   47.4965 	   23.0000 	   17.0000 	    7.0205
    6.9505 	   47.8660 	   23.0000 	   17.0000 	    7.7596
    7.1489 	   48.2610 	   23.0000 	   17.0000 	    8.5496
    7.1183 	   48.6490 	   23.0000 	   17.0000 	    9.3256
    7.1489 	   49.0450 	   23.0000 	   17.0000 	   10.1177
    7.2099 	   49.4325 	   23.0000 	   17.0000 	   10.8927
    7.3930 	   49.8260 	   23.0000 	   17.0000 	   11.6798
    7.3777 	   50.1880 	   23.0000 	   17.0000 	   12.4028
    7.6982 	   50.5850 	   23.0000 	   17.0000 	   13.1969
    7.5608 	   50.9835 	   23.0000 	   17.0000 	   13.9939
    7.8202 	   51.3790 	   23.0000 	   17.0000 	   14.7850
    7.8050 	   51.7770 	   23.0000 	   17.0000 	   15.5810
    7.9728 	   52.1710 	   23.0000 	   17.0000 	   16.3690
    8.1254 	   52.5635 	   23.0000 	   17.0000 	   17.1541
    8.3238 	   52.9645 	   23.0000 	   17.0000 	   17.9561
    8.3696 	   53.3615 	   23.0000 	   17.0000 	   18.7502
    8.3391 	   53.7595 	   23.0000 	   17.0000 	   19.5462
    8.2475 	   54.1625 	   23.0000 	   17.0000 	   20.3523
    8.7053 	   54.5615 	   23.0000 	   17.0000 	   21.1503
    8.9952 	   54.9620 	   23.0000 	   17.0000 	   21.9514
    8.8273 	   55.3585 	   23.0000 	   17.0000 	   22.7444
    8.9036 	   55.7600 	   23.0000 	   17.0000 	   23.5475
    9.2088 	   56.1465 	   23.0000 	   17.0000 	   24.3205
    9.2088 	   56.5445 	   23.0000 	   17.0000 	   25.1166
    9.3919 	   56.9530 	   23.0000 	   17.0000 	   25.9336
    9.3919 	   57.3590 	   23.0000 	   17.0000 	   26.7456
    9.6056 	   57.7635 	   23.0000 	   17.0000 	   27.5547
   10.0175 	   58.1630 	   23.0000 	   17.0000 	   28.3537
   10.0328 	   58.5705 	   23.0000 	   17.0000 	   29.1688
   10.1549 	   58.9815 	   23.0000 	   17.0000 	   29.9898
   10.2007 	   59.3720 	   23.0000 	   17.0000 	   30.7709
   10.5058 	   59.7850 	   23.0000 	   17.0000 	   31.5969
   10.4448 	   59.8700 	   23.0000 	   17.0000 	   31.7669