Folder: Smart-Fabrics/instron/deadline/bak/hysteresis/blue_15_3

File: blue_15_3_60_30_force.txt
Thayer School of Engineering        Instron 4442 Mechanical Testing System
7/8/2018 11:44:32 PM

  Force (N)	Extension (mm)	Not Used	Not Used	Not Used	     Hour	    Minute	    Second
    0.4044 	    0.5210 	   23.0000 	   45.0000 	    1.0883
    0.4654 	    1.0090 	   23.0000 	   45.0000 	    2.0643
    0.5875 	    1.4810 	   23.0000 	   45.0000 	    3.0084
    0.4654 	    1.8545 	   23.0000 	   45.0000 	    3.7554
    0.4959 	    2.1590 	   23.0000 	   45.0000 	    4.3645
    0.3891 	    2.4705 	   23.0000 	   45.0000 	    4.9875
    0.5570 	    2.7890 	   23.0000 	   45.0000 	    5.6245
    0.7401 	    3.0860 	   23.0000 	   45.0000 	    6.2186
    0.6180 	    3.3855 	   23.0000 	   45.0000 	    6.8176
    0.7858 	    3.6895 	   23.0000 	   45.0000 	    7.4256
    0.9079 	    3.9890 	   23.0000 	   45.0000 	    8.0247
    0.8621 	    4.2870 	   23.0000 	   45.0000 	    8.6207
    0.7095 	    4.5870 	   23.0000 	   45.0000 	    9.2207
    1.0758 	    4.8890 	   23.0000 	   45.0000 	    9.8248
    1.2284 	    5.2010 	   23.0000 	   45.0000 	   10.4478
    1.0910 	    5.5155 	   23.0000 	   45.0000 	   11.0778
    1.2894 	    5.8225 	   23.0000 	   45.0000 	   11.6919
    0.9232 	    6.1285 	   23.0000 	   45.0000 	   12.3039
    1.2589 	    6.4290 	   23.0000 	   45.0000 	   12.9049
    1.4115 	    6.7355 	   23.0000 	   45.0000 	   13.5180
    1.2894 	    7.0440 	   23.0000 	   45.0000 	   14.1350
    1.3352 	    7.3505 	   23.0000 	   45.0000 	   14.7480
    1.5030 	    7.6340 	   23.0000 	   45.0000 	   15.3151
    1.3809 	    7.9260 	   23.0000 	   45.0000 	   15.8981
    1.6098 	    8.2110 	   23.0000 	   45.0000 	   16.4681
    1.3809 	    8.4990 	   23.0000 	   45.0000 	   17.0442
    1.3809 	    8.8015 	   23.0000 	   45.0000 	   17.6492
    1.4420 	    9.0990 	   23.0000 	   45.0000 	   18.2442
    1.8082 	    9.4020 	   23.0000 	   45.0000 	   18.8503
    1.5640 	    9.7015 	   23.0000 	   45.0000 	   19.4493
    1.7014 	   10.0520 	   23.0000 	   45.0000 	   20.1504
    1.7014 	   10.3640 	   23.0000 	   45.0000 	   20.7744
    1.6709 	   10.6640 	   23.0000 	   45.0000 	   21.3744
    1.6861 	   10.9500 	   23.0000 	   45.0000 	   21.9465
    1.7472 	   11.2680 	   23.0000 	   45.0000 	   22.5825
    1.7014 	   11.5865 	   23.0000 	   45.0000 	   23.2195
    1.7777 	   11.9095 	   23.0000 	   45.0000 	   23.8656
    1.6251 	   12.2430 	   23.0000 	   45.0000 	   24.5326
    1.8845 	   12.5665 	   23.0000 	   45.0000 	   25.1796
    2.0066 	   12.8880 	   23.0000 	   45.0000 	   25.8227
    1.9455 	   13.1920 	   23.0000 	   45.0000 	   26.4307
    2.0676 	   13.5135 	   23.0000 	   45.0000 	   27.0738
    2.0676 	   13.8390 	   23.0000 	   45.0000 	   27.7248
    2.0371 	   14.1635 	   23.0000 	   45.0000 	   28.3738
    2.1286 	   14.4865 	   23.0000 	   45.0000 	   29.0199
    2.0981 	   14.8180 	   23.0000 	   45.0000 	   29.6829
    2.1897 	   15.1450 	   23.0000 	   45.0000 	   30.3369
    2.2507 	   15.4755 	   23.0000 	   45.0000 	   30.9980
    2.1286 	   15.8035 	   23.0000 	   45.0000 	   31.6540
    2.2660 	   16.1300 	   23.0000 	   45.0000 	   32.3071
    2.2354 	   16.4600 	   23.0000 	   45.0000 	   32.9671
    2.3880 	   16.7925 	   23.0000 	   45.0000 	   33.6311
    2.4033 	   17.1015 	   23.0000 	   45.0000 	   34.2492
    2.3728 	   17.4025 	   23.0000 	   45.0000 	   34.8512
    2.2660 	   17.7320 	   23.0000 	   45.0000 	   35.5102
    2.4491 	   18.0640 	   23.0000 	   45.0000 	   36.1743
    2.4491 	   18.3970 	   23.0000 	   45.0000 	   36.8403
    2.5406 	   18.7510 	   23.0000 	   45.0000 	   37.5484
    2.5559 	   19.0875 	   23.0000 	   45.0000 	   38.2214
    2.3270 	   19.4260 	   23.0000 	   45.0000 	   38.8984
    2.5101 	   19.7665 	   23.0000 	   45.0000 	   39.5795
    2.6322 	   20.1055 	   23.0000 	   45.0000 	   40.2575
    2.8153 	   20.4460 	   23.0000 	   45.0000 	   40.9385
    2.6017 	   20.7875 	   23.0000 	   45.0000 	   41.6216
    2.7237 	   21.1305 	   23.0000 	   45.0000 	   42.3076
    2.7848 	   21.4685 	   23.0000 	   45.0000 	   42.9837
    2.7085 	   21.8110 	   23.0000 	   45.0000 	   43.6687
    2.7848 	   22.1520 	   23.0000 	   45.0000 	   44.3507
    2.7695 	   22.4950 	   23.0000 	   45.0000 	   45.0368
    2.7085 	   22.8415 	   23.0000 	   45.0000 	   45.7298
    2.9679 	   23.1870 	   23.0000 	   45.0000 	   46.4209
    3.0289 	   23.5320 	   23.0000 	   45.0000 	   47.1109
    3.0137 	   23.8785 	   23.0000 	   45.0000 	   47.8039
    2.9374 	   24.2280 	   23.0000 	   45.0000 	   48.5030
    3.1205 	   24.5845 	   23.0000 	   45.0000 	   49.2160
    3.1205 	   24.9350 	   23.0000 	   45.0000 	   49.9171
    3.0137 	   25.2860 	   23.0000 	   45.0000 	   50.6181
    3.0900 	   25.6340 	   23.0000 	   45.0000 	   51.3141
    2.9374 	   25.9865 	   23.0000 	   45.0000 	   52.0192
    3.1815 	   26.3185 	   23.0000 	   45.0000 	   52.6832
    3.2120 	   26.6350 	   23.0000 	   45.0000 	   53.3163
    3.3188 	   26.9640 	   23.0000 	   45.0000 	   53.9743
    3.3646 	   27.3150 	   23.0000 	   45.0000 	   54.6763
    3.3036 	   27.6650 	   23.0000 	   45.0000 	   55.3764
    3.3646 	   28.0180 	   23.0000 	   45.0000 	   56.0824
    3.3036 	   28.3745 	   23.0000 	   45.0000 	   56.7955
    3.5782 	   28.7360 	   23.0000 	   45.0000 	   57.5185
    3.5172 	   29.0930 	   23.0000 	   45.0000 	   58.2325
    3.5019 	   29.4515 	   23.0000 	   45.0000 	   58.9496
    3.5782 	   29.8105 	   23.0000 	   45.0000 	   59.6676
    3.4257 	   30.1510 	   23.0000 	   46.0000 	    0.3487
    3.6545 	   30.5100 	   23.0000 	   46.0000 	    1.0667
    3.6393 	   30.8655 	   23.0000 	   46.0000 	    1.7777
    3.7308 	   31.2315 	   23.0000 	   46.0000 	    2.5098
    3.9292 	   31.5945 	   23.0000 	   46.0000 	    3.2358
    3.8071 	   31.9615 	   23.0000 	   46.0000 	    3.9699
    3.9750 	   32.3255 	   23.0000 	   46.0000 	    4.6979
    3.9597 	   32.6940 	   23.0000 	   46.0000 	    5.4349
    3.9445 	   33.0605 	   23.0000 	   46.0000 	    6.1680
    3.9139 	   33.4290 	   23.0000 	   46.0000 	    6.9050
    4.1123 	   33.7940 	   23.0000 	   46.0000 	    7.6351
    4.1123 	   34.1635 	   23.0000 	   46.0000 	    8.3731
    4.2496 	   34.5340 	   23.0000 	   46.0000 	    9.1142
    4.1428 	   34.9045 	   23.0000 	   46.0000 	    9.8552
    4.1886 	   35.2695 	   23.0000 	   46.0000 	   10.5852
    4.2954 	   35.6450 	   23.0000 	   46.0000 	   11.3363
    4.1733 	   36.0210 	   23.0000 	   46.0000 	   12.0883
    4.4022 	   36.3960 	   23.0000 	   46.0000 	   12.8384
    4.4480 	   36.7720 	   23.0000 	   46.0000 	   13.5904
    4.4327 	   37.1510 	   23.0000 	   46.0000 	   14.3485
    4.4175 	   37.5240 	   23.0000 	   46.0000 	   15.0945
    4.3107 	   37.8910 	   23.0000 	   46.0000 	   15.8285
    4.5090 	   38.2665 	   23.0000 	   46.0000 	   16.5796
    4.6159 	   38.6255 	   23.0000 	   46.0000 	   17.2976
    4.6311 	   39.0055 	   23.0000 	   46.0000 	   18.0577
    4.6006 	   39.3895 	   23.0000 	   46.0000 	   18.8257
    4.7379 	   39.7710 	   23.0000 	   46.0000 	   19.5888
    4.7227 	   40.1550 	   23.0000 	   46.0000 	   20.3568
    4.9363 	   40.5315 	   23.0000 	   46.0000 	   21.1098
    4.8600 	   40.9150 	   23.0000 	   46.0000 	   21.8769
    4.8753 	   41.2950 	   23.0000 	   46.0000 	   22.6369
    5.0278 	   41.6800 	   23.0000 	   46.0000 	   23.4070
    5.0736 	   42.0670 	   23.0000 	   46.0000 	   24.1810
    5.1347 	   42.4440 	   23.0000 	   46.0000 	   24.9351
    5.0584 	   42.8060 	   23.0000 	   46.0000 	   25.6581
    5.3025 	   43.2020 	   23.0000 	   46.0000 	   26.4501
    5.3025 	   43.5875 	   23.0000 	   46.0000 	   27.2212
    5.1957 	   43.9755 	   23.0000 	   46.0000 	   27.9972
    5.5619 	   44.3695 	   23.0000 	   46.0000 	   28.7853
    5.6687 	   44.7545 	   23.0000 	   46.0000 	   29.5553
    5.4551 	   45.1445 	   23.0000 	   46.0000 	   30.3354
    5.4551 	   45.5315 	   23.0000 	   46.0000 	   31.1094
    5.7603 	   45.9165 	   23.0000 	   46.0000 	   31.8795
    5.6535 	   46.3020 	   23.0000 	   46.0000 	   32.6505
    5.5009 	   46.6630 	   23.0000 	   46.0000 	   33.3725
    5.8061 	   47.0555 	   23.0000 	   46.0000 	   34.1576
    5.7603 	   47.4485 	   23.0000 	   46.0000 	   34.9436
    6.0349 	   47.8500 	   23.0000 	   46.0000 	   35.7467
    5.9892 	   48.2410 	   23.0000 	   46.0000 	   36.5287
    6.1265 	   48.6335 	   23.0000 	   46.0000 	   37.3138
    6.1875 	   49.0255 	   23.0000 	   46.0000 	   38.0978
    6.2181 	   49.4110 	   23.0000 	   46.0000 	   38.8689
    6.2791 	   49.8060 	   23.0000 	   46.0000 	   39.6589
    6.0655 	   50.2005 	   23.0000 	   46.0000 	   40.4479
    6.4927 	   50.5935 	   23.0000 	   46.0000 	   41.2340
    6.5537 	   50.9985 	   23.0000 	   46.0000 	   42.0440
    6.6911 	   51.3805 	   23.0000 	   46.0000 	   42.8081
    6.5690 	   51.7805 	   23.0000 	   46.0000 	   43.6071
    6.7979 	   52.1880 	   23.0000 	   46.0000 	   44.4222
    6.9200 	   52.5860 	   23.0000 	   46.0000 	   45.2182
    6.9657 	   52.9740 	   23.0000 	   46.0000 	   45.9943
    7.0726 	   53.3635 	   23.0000 	   46.0000 	   46.7733
    6.7369 	   53.7645 	   23.0000 	   46.0000 	   47.5754
    7.1946 	   54.1435 	   23.0000 	   46.0000 	   48.3334
    7.2099 	   54.5360 	   23.0000 	   46.0000 	   49.1184
    7.4845 	   54.9380 	   23.0000 	   46.0000 	   49.9225
    7.4693 	   55.3445 	   23.0000 	   46.0000 	   50.7355
    7.7440 	   55.7200 	   23.0000 	   46.0000 	   51.4866
    7.7440 	   56.1070 	   23.0000 	   46.0000 	   52.2606
    7.9423 	   56.4810 	   23.0000 	   46.0000 	   53.0087
    7.9576 	   56.8460 	   23.0000 	   46.0000 	   53.7387
    8.1102 	   57.2280 	   23.0000 	   46.0000 	   54.5028
    8.2475 	   57.6075 	   23.0000 	   46.0000 	   55.2618
    8.2628 	   57.9825 	   23.0000 	   46.0000 	   56.0118
    8.4611 	   58.3990 	   23.0000 	   46.0000 	   56.8449
    8.5679 	   58.8090 	   23.0000 	   46.0000 	   57.6649
    8.6748 	   59.2020 	   23.0000 	   46.0000 	   58.4510
    8.7663 	   59.5750 	   23.0000 	   46.0000 	   59.1970
    8.9952 	   59.9660 	   23.0000 	   46.0000 	   59.9791
    8.9647 	   60.0855 	   23.0000 	   47.0000 	    0.2181