Folder: Smart-Fabrics/instron/deadline/bak/hysteresis/blue_15_3_new

File: blue_15_3_60_120.txt
Thayer School of Engineering        Instron 4442 Mechanical Testing System
7/9/2018 3:25:43 AM

  Force (N)	Extension (mm)	Not Used	Not Used	Not Used	     Hour	    Minute	    Second
    1.2284 	    2.0340 	    3.0000 	   26.0000 	   12.7554
    1.3504 	    3.0860 	    3.0000 	   26.0000 	   13.2824
    1.6861 	    4.1680 	    3.0000 	   26.0000 	   13.8234
    1.7319 	    5.2280 	    3.0000 	   26.0000 	   14.3535
    1.8082 	    6.3180 	    3.0000 	   26.0000 	   14.8985
    1.8235 	    7.1160 	    3.0000 	   26.0000 	   15.2975
    2.0829 	    7.8800 	    3.0000 	   26.0000 	   15.6795
    2.0829 	    8.6020 	    3.0000 	   26.0000 	   16.0406
    2.0829 	    9.2860 	    3.0000 	   26.0000 	   16.3826
    2.1592 	    9.9680 	    3.0000 	   26.0000 	   16.7236
    2.0676 	   10.6400 	    3.0000 	   26.0000 	   17.0596
    2.3423 	   11.3840 	    3.0000 	   26.0000 	   17.4316
    2.5711 	   12.0640 	    3.0000 	   26.0000 	   17.7716
    2.7237 	   12.6960 	    3.0000 	   26.0000 	   18.0877
    2.4796 	   13.3800 	    3.0000 	   26.0000 	   18.4297
    2.5864 	   14.0680 	    3.0000 	   26.0000 	   18.7737
    2.8000 	   14.6560 	    3.0000 	   26.0000 	   19.0677
    2.9526 	   15.2560 	    3.0000 	   26.0000 	   19.3677
    2.8000 	   15.9520 	    3.0000 	   26.0000 	   19.7158
    2.9068 	   16.5540 	    3.0000 	   26.0000 	   20.0168
    2.9374 	   17.1780 	    3.0000 	   26.0000 	   20.3288
    3.0289 	   17.8600 	    3.0000 	   26.0000 	   20.6698
    3.2273 	   18.4960 	    3.0000 	   26.0000 	   20.9878
    3.3036 	   19.1420 	    3.0000 	   26.0000 	   21.3109
    3.1968 	   19.8420 	    3.0000 	   26.0000 	   21.6609
    3.2578 	   20.4840 	    3.0000 	   26.0000 	   21.9819
    3.3494 	   21.2540 	    3.0000 	   26.0000 	   22.3669
    3.5172 	   21.9600 	    3.0000 	   26.0000 	   22.7199
    3.5172 	   22.5660 	    3.0000 	   26.0000 	   23.0229
    3.6088 	   23.3160 	    3.0000 	   26.0000 	   23.3980
    3.7156 	   24.0220 	    3.0000 	   26.0000 	   23.7510
    3.7156 	   24.6380 	    3.0000 	   26.0000 	   24.0590
    3.7613 	   25.3260 	    3.0000 	   26.0000 	   24.4030
    3.9750 	   26.0260 	    3.0000 	   26.0000 	   24.7530
    4.0513 	   26.6780 	    3.0000 	   26.0000 	   25.0791
    4.0208 	   27.4240 	    3.0000 	   26.0000 	   25.4521
    4.1886 	   28.1100 	    3.0000 	   26.0000 	   25.7951
    4.3412 	   28.7260 	    3.0000 	   26.0000 	   26.1031
    4.5853 	   29.4180 	    3.0000 	   26.0000 	   26.4491
    4.2039 	   30.1280 	    3.0000 	   26.0000 	   26.8032
    4.5548 	   30.7860 	    3.0000 	   26.0000 	   27.1322
    4.6464 	   31.5100 	    3.0000 	   26.0000 	   27.4942
    4.7074 	   32.2220 	    3.0000 	   26.0000 	   27.8502
    4.7532 	   32.8660 	    3.0000 	   26.0000 	   28.1722
    4.8295 	   33.6100 	    3.0000 	   26.0000 	   28.5443
    4.9668 	   34.2960 	    3.0000 	   26.0000 	   28.8873
    4.9821 	   34.9360 	    3.0000 	   26.0000 	   29.2073
    5.1347 	   35.6480 	    3.0000 	   26.0000 	   29.5633
    5.1652 	   36.3300 	    3.0000 	   26.0000 	   29.9043
    5.4398 	   36.9860 	    3.0000 	   26.0000 	   30.2324
    5.5161 	   37.7200 	    3.0000 	   26.0000 	   30.5994
    5.3178 	   38.3940 	    3.0000 	   26.0000 	   30.9364
    5.8366 	   39.0800 	    3.0000 	   26.0000 	   31.2794
    5.7450 	   39.8100 	    3.0000 	   26.0000 	   31.6444
    5.8824 	   40.4900 	    3.0000 	   26.0000 	   31.9845
    5.9739 	   41.1760 	    3.0000 	   26.0000 	   32.3275
    6.1875 	   41.9120 	    3.0000 	   26.0000 	   32.6955
    6.1875 	   42.5800 	    3.0000 	   26.0000 	   33.0295
    6.2028 	   43.3440 	    3.0000 	   26.0000 	   33.4115
    6.4927 	   44.0740 	    3.0000 	   26.0000 	   33.7766
    6.5385 	   44.7260 	    3.0000 	   26.0000 	   34.1026
    6.7063 	   45.4540 	    3.0000 	   26.0000 	   34.4666
    6.8132 	   46.1720 	    3.0000 	   26.0000 	   34.8256
    6.8894 	   46.8400 	    3.0000 	   26.0000 	   35.1596
    6.9657 	   47.5880 	    3.0000 	   26.0000 	   35.5337
    7.2251 	   48.3180 	    3.0000 	   26.0000 	   35.8987
    7.3930 	   49.0000 	    3.0000 	   26.0000 	   36.2397
    7.6829 	   49.7440 	    3.0000 	   26.0000 	   36.6117
    7.7592 	   50.4500 	    3.0000 	   26.0000 	   36.9647
    7.9271 	   51.1160 	    3.0000 	   26.0000 	   37.2978
    8.1254 	   51.8100 	    3.0000 	   26.0000 	   37.6448
    8.3085 	   52.5060 	    3.0000 	   26.0000 	   37.9928
    8.4306 	   53.2240 	    3.0000 	   26.0000 	   38.3518
    8.6900 	   53.9560 	    3.0000 	   26.0000 	   38.7178
    8.9036 	   54.6400 	    3.0000 	   26.0000 	   39.0599
    9.1325 	   55.3520 	    3.0000 	   26.0000 	   39.4159
    9.1936 	   56.0880 	    3.0000 	   26.0000 	   39.7839
    9.4835 	   56.7580 	    3.0000 	   26.0000 	   40.1189
    9.9565 	   57.5480 	    3.0000 	   26.0000 	   40.5140
   10.1854 	   58.3880 	    3.0000 	   26.0000 	   40.9340
   10.4906 	   59.0700 	    3.0000 	   26.0000 	   41.2750
    9.5750 	   59.7800 	    3.0000 	   26.0000 	   41.6300
    8.7816 	   60.4940 	    3.0000 	   26.0000 	   41.9870
    8.3238 	   61.1480 	    3.0000 	   26.0000 	   42.3141
    7.4845 	   61.8440 	    3.0000 	   26.0000 	   42.6621
    7.5761 	   62.4960 	    3.0000 	   26.0000 	   42.9881
    7.3167 	   63.1780 	    3.0000 	   26.0000 	   43.3291
    6.8589 	   63.9100 	    3.0000 	   26.0000 	   43.6951
    6.5232 	   64.6180 	    3.0000 	   26.0000 	   44.0492
    6.3401 	   65.3200 	    3.0000 	   26.0000 	   44.3992
    6.1875 	   66.0500 	    3.0000 	   26.0000 	   44.7642
    6.0502 	   66.7460 	    3.0000 	   26.0000 	   45.1122
    5.8061 	   67.4400 	    3.0000 	   26.0000 	   45.4592
    5.5161 	   68.1440 	    3.0000 	   26.0000 	   45.8113
    5.3941 	   68.8340 	    3.0000 	   26.0000 	   46.1563
    5.3483 	   69.5480 	    3.0000 	   26.0000 	   46.5133
    5.1957 	   70.2120 	    3.0000 	   26.0000 	   46.8453
    5.1804 	   70.8620 	    3.0000 	   26.0000 	   47.1703
    4.9821 	   71.5820 	    3.0000 	   26.0000 	   47.5303
    4.7227 	   72.3320 	    3.0000 	   26.0000 	   47.9054
    4.7074 	   73.0120 	    3.0000 	   26.0000 	   48.2454
    4.6159 	   73.7760 	    3.0000 	   26.0000 	   48.6274
    4.5243 	   74.5400 	    3.0000 	   26.0000 	   49.0094
    4.2344 	   75.2540 	    3.0000 	   26.0000 	   49.3665
    4.2496 	   76.0160 	    3.0000 	   26.0000 	   49.7475
    4.2191 	   76.7560 	    3.0000 	   26.0000 	   50.1175
    4.0970 	   77.4680 	    3.0000 	   26.0000 	   50.4735
    4.0513 	   78.2440 	    3.0000 	   26.0000 	   50.8615
    3.7919 	   78.9420 	    3.0000 	   26.0000 	   51.2106
    3.8376 	   79.6820 	    3.0000 	   26.0000 	   51.5806
    3.6240 	   80.4480 	    3.0000 	   26.0000 	   51.9636
    3.6545 	   81.1580 	    3.0000 	   26.0000 	   52.3186
    3.3646 	   81.9200 	    3.0000 	   26.0000 	   52.6996
    3.2578 	   82.6740 	    3.0000 	   26.0000 	   53.0767
    3.4409 	   83.3720 	    3.0000 	   26.0000 	   53.4257
    2.9679 	   84.1160 	    3.0000 	   26.0000 	   53.7977
    3.3341 	   84.8620 	    3.0000 	   26.0000 	   54.1707
    3.1662 	   85.5680 	    3.0000 	   26.0000 	   54.5238
    2.8916 	   86.3480 	    3.0000 	   26.0000 	   54.9138
    2.9679 	   87.0540 	    3.0000 	   26.0000 	   55.2668
    2.9831 	   87.8360 	    3.0000 	   26.0000 	   55.6578
    2.7390 	   88.6020 	    3.0000 	   26.0000 	   56.0408
    3.0137 	   89.3260 	    3.0000 	   26.0000 	   56.4029
    2.8305 	   90.1060 	    3.0000 	   26.0000 	   56.7929
    2.6932 	   90.8380 	    3.0000 	   26.0000 	   57.1589
    2.6169 	   91.5560 	    3.0000 	   26.0000 	   57.5179
    2.5406 	   92.3340 	    3.0000 	   26.0000 	   57.9069
    2.5406 	   93.0440 	    3.0000 	   26.0000 	   58.2620
    2.3117 	   93.8140 	    3.0000 	   26.0000 	   58.6470
    2.1286 	   94.5840 	    3.0000 	   26.0000 	   59.0320
    2.1592 	   95.3240 	    3.0000 	   26.0000 	   59.4010
    2.2354 	   96.1020 	    3.0000 	   26.0000 	   59.7911
    2.0676 	   96.8560 	    3.0000 	   27.0000 	    0.1681
    2.1592 	   97.6080 	    3.0000 	   27.0000 	    0.5441
    1.9608 	   98.3720 	    3.0000 	   27.0000 	    0.9261
    1.9608 	   99.0980 	    3.0000 	   27.0000 	    1.2891
    1.9760 	   99.8840 	    3.0000 	   27.0000 	    1.6822
    1.8845 	  100.6380 	    3.0000 	   27.0000 	    2.0582
    1.8387 	  101.3740 	    3.0000 	   27.0000 	    2.4262
    1.7624 	  102.1600 	    3.0000 	   27.0000 	    2.8192
    1.5946 	  102.9040 	    3.0000 	   27.0000 	    3.1912
    1.5640 	  103.6760 	    3.0000 	   27.0000 	    3.5773
    1.4420 	  104.4900 	    3.0000 	   27.0000 	    3.9843
    1.3199 	  105.2320 	    3.0000 	   27.0000 	    4.3553
    1.3962 	  106.0180 	    3.0000 	   27.0000 	    4.7483
    1.2436 	  106.7940 	    3.0000 	   27.0000 	    5.1364
    1.3199 	  107.5540 	    3.0000 	   27.0000 	    5.5164
    1.2589 	  108.3820 	    3.0000 	   27.0000 	    5.9304
    1.0910 	  109.1180 	    3.0000 	   27.0000 	    6.2984
    1.1063 	  109.8960 	    3.0000 	   27.0000 	    6.6874
    0.9232 	  110.6960 	    3.0000 	   27.0000 	    7.0875
    0.8927 	  111.4300 	    3.0000 	   27.0000 	    7.4545
    0.6485 	  112.1900 	    3.0000 	   27.0000 	    7.8345
    0.7248 	  112.9560 	    3.0000 	   27.0000 	    8.2175
    0.6638 	  113.7180 	    3.0000 	   27.0000 	    8.5986
    0.6180 	  114.5220 	    3.0000 	   27.0000 	    9.0006
    0.4654 	  115.2760 	    3.0000 	   27.0000 	    9.3776
    0.5570 	  116.0440 	    3.0000 	   27.0000 	    9.7616
    0.4807 	  116.8100 	    3.0000 	   27.0000 	   10.1446
    0.2670 	  117.5940 	    3.0000 	   27.0000 	   10.5367
    0.2365 	  118.4340 	    3.0000 	   27.0000 	   10.9567
    0.3128 	  119.2100 	    3.0000 	   27.0000 	   11.3447
    0.3586 	  120.0460 	    3.0000 	   27.0000 	   11.7627
    0.2823 	  120.8400 	    3.0000 	   27.0000 	   12.1598
    0.4959 	  121.0360 	    3.0000 	   27.0000 	   12.2578